ACCX,ACCY,ACCZ,GYRX,GYRY,GYRZ,MAGX,MAGY,MAGZ
,,,,,,-28.0625,-116.3750,0.3750
,,,0.2439,-0.5488,0.3049,,,
0.8191,0.7610,1.6584,0.4878,-0.7927,0.5488,,,
0.8306,0.7666,1.6714,0.6707,-0.7317,0.5488,,,
0.8394,0.7620,1.6558,0.7317,-0.7317,0.3659,,,
0.8433,0.7620,1.6543,,,,,,
0.8479,0.7649,1.6526,0.5183,-0.2135,0.3659,,,
0.8477,0.7644,1.6558,0.3659,0.0610,0.0610,,,
,,,0.3659,0.2439,-0.1829,,,
0.8359,0.7659,1.6533,-0.4268,0.1829,-0.1220,,,
,,,,,,-28.7500,-116.3750,-0.7500
0.8224,0.7631,1.6544,0.1829,0.0305,-0.1829,,,
0.8210,0.7646,1.6660,0.0610,-0.1829,0.0000,,,
0.8257,0.7720,1.6650,,,,,,
,,,0.2439,-0.3049,0.1220,,,
0.8235,0.7734,1.6658,-0.1829,-0.5488,0.3049,,,
0.8228,0.7717,1.6614,0.0000,-0.6098,0.3659,,,
0.8308,0.7693,1.6584,0.0000,-1.0366,0.0610,,,
0.8423,0.7690,1.6531,-0.4878,-0.6098,0.1220,,,
0.8494,0.7634,1.6514,,,,,,
0.8555,0.7593,1.6528,-0.4268,-0.2439,0.1829,,,
,,,-0.4878,0.3659,0.0610,,,
,,,,,,-28.0625,-117.0625,-1.1250
0.8430,0.7620,1.6533,-0.8537,0.9146,-0.3659,,,
0.8333,0.7646,1.6575,,,,,,
,,,0.0000,0.5488,-0.5488,,,
0.8320,0.7625,1.6594,0.0000,0.0610,-0.0610,,,
0.8301,0.7666,1.6621,0.3049,-0.3049,0.0610,,,
0.8279,0.7664,1.6631,-0.2439,-0.5488,-0.0610,,,
0.8242,0.7632,1.6565,,,,,,
0.8193,0.7600,1.6567,-0.4878,-0.7927,0.2744,,,
0.8223,0.7573,1.6589,-0.0610,-1.0976,0.6098,,,
0.8401,0.7627,1.6606,,,,,,
0.8479,0.7651,1.6605,0.3049,-0.6098,0.0610,,,
0.8425,0.7668,1.6528,0.4268,-0.0610,-0.0610,,,
0.8394,0.7629,1.6597,0.2439,0.1829,0.1220,,,
0.8296,0.7555,1.6562,,,,,,
0.8210,0.7585,1.6606,0.3049,0.4268,0.1220,,,
0.8218,0.7646,1.6619,0.3049,0.1220,0.3659,,,
0.8325,0.7631,1.6578,0.2744,-0.8232,0.2440,,,
0.8345,0.7695,1.6450,0.3659,-0.5793,0.2440,-28.3750,-115.2500,-1.5000
0.8362,0.7698,1.6443,0.1220,-0.6098,0.3049,,,
0.8410,0.7639,1.6563,0.2439,-0.1220,0.1829,,,
0.8342,0.7617,1.6621,0.1220,-0.4268,0.4268,,,
0.8228,0.7616,1.6673,0.1220,-0.6098,0.1829,,,
0.8223,0.7561,1.6545,0.5488,-1.2195,0.3049,,,
0.8350,0.7573,1.6567,,,,,,
,,,0.2439,-1.8293,0.3049,,,
,,,,,,-28.3750,-116.6875,-0.7500
0.8474,0.7656,1.6594,,,,,,
0.8572,0.7668,1.6492,-0.2439,-0.4268,0.1829,,,
0.8560,0.7590,1.6533,,,,,,
0.8364,0.7664,1.6523,-0.4878,0.0000,0.1220,,,
0.8257,0.7654,1.6499,-0.3659,-0.2744,0.1525,,,
0.8201,0.7600,1.6560,,,,,,
,,,-0.1220,-0.9146,0.3049,,,
0.8333,0.7661,1.6650,0.1220,-1.6463,0.6707,,,
,,,0.3049,-1.6463,0.6098,,,
0.8450,0.7703,1.6621,0.1220,-1.3415,0.4268,,,
0.8445,0.7645,1.6534,,,,-28.0625,-116.3750,-1.1250
0.8542,0.7529,1.6509,-0.6098,-1.0366,-0.1220,,,
,,,-0.4878,-0.4268,0.4268,,,
0.8439,0.7559,1.6582,-0.6707,-0.0610,0.1220,,,
,,,-0.9756,0.1220,0.0000,,,
0.8218,0.7715,1.6506,-0.6707,-0.4878,0.0610,,,
0.8315,0.7637,1.6511,,,,,,
,,,-0.6707,-0.9146,0.1220,,,
0.8406,0.7617,1.6609,-0.3049,-1.4024,0.3049,,,
0.8450,0.7710,1.6643,-1.2195,-1.1585,-0.1220,-28.3750,-114.8750,-1.1250
0.8289,0.7681,1.6493,-1.4024,-1.4634,0.4878,,,
0.8467,0.7612,1.6567,-1.0366,-1.5244,0.0610,,,
0.8542,0.7604,1.6623,,,,,,
0.8455,0.7617,1.6550,-0.7927,0.2439,-0.1220,,,
0.8455,0.7515,1.6663,,,,,,
,,,-0.2439,0.9756,-0.1829,,,
0.8312,0.7514,1.6601,,,,-28.0625,-116.0000,-0.3750
0.8665,0.7498,1.6450,-0.3659,-1.0366,-0.1220,,,
0.8457,0.7568,1.6682,-0.8537,0.0610,-0.7317,,,
0.8577,0.7542,1.6643,0.0000,0.6707,0.1220,,,
0.8371,0.7592,1.6565,,,,,,
0.8391,0.7502,1.6704,-0.0610,0.6098,-0.1220,-29.8750,-116.6875,-0.3750
0.8425,0.7664,1.6560,-0.4878,1.0976,-1.1585,,,
0.8458,0.7655,1.6501,-0.6402,0.7927,-1.0366,,,
0.8403,0.7629,1.6514,-0.6098,0.6098,-0.4878,,,
0.8347,0.7566,1.6509,-0.1829,0.4878,0.0000,,,
0.8232,0.7480,1.6665,0.0000,-0.1829,0.0000,,,
0.8254,0.7424,1.6697,0.1220,-0.4878,0.1829,,,
0.8325,0.7454,1.6707,,,,,,
0.8356,0.7586,1.6605,-0.2743,0.0610,-0.1220,,,
0.8403,0.7622,1.6448,-0.7317,0.4878,0.3659,,,
0.8408,0.7468,1.6475,-0.6098,-0.0610,0.4268,,,
0.8289,0.7512,1.6589,-0.3049,-0.1220,0.4268,,,
0.8269,0.7625,1.6597,,,,,,
0.8425,0.7632,1.6686,-0.2135,-0.4269,0.0610,,,
,,,0.2439,0.6098,-0.3049,-28.3750,-116.0000,-0.7500
0.8423,0.7532,1.6716,,,,,,
0.8311,0.7605,1.6626,0.1829,0.9756,0.4268,,,
0.8274,0.7534,1.6526,0.1220,0.6707,0.0610,,,
0.8353,0.7526,1.6545,-0.1829,0.1220,0.1829,,,
0.8315,0.7520,1.6533,-0.3659,-0.3049,0.0610,,,
0.8335,0.7524,1.6575,-0.1220,-0.8537,0.2439,,,
0.8367,0.7539,1.6638,-0.0610,-0.9146,0.2439,,,
0.8430,0.7537,1.6655,,,,,,
0.8359,0.7576,1.6680,0.1829,-0.3659,0.4878,,,
0.8345,0.7607,1.6653,0.0000,0.1220,0.4268,,,
0.8333,0.7544,1.6653,,,,,,
,,,0.4268,-0.0610,0.1220,,,
0.8284,0.7510,1.6621,0.8537,-0.3659,0.7927,,,
0.8252,0.7537,1.6604,0.6098,-0.4268,0.3659,,,
0.8367,0.7620,1.6567,0.4268,-0.7317,0.0610,,,
0.8435,0.7544,1.6621,0.3049,-0.4268,0.3659,,,
0.8386,0.7595,1.6733,0.1220,0.4878,-1.1585,,,
0.8428,0.7627,1.6704,,,,,,
0.8085,0.7628,1.6877,0.1830,1.1280,-2.0732,-28.7500,-115.6250,-0.3750
,,,-0.3049,-2.1951,-5.8537,,,
0.8052,0.7888,1.7036,-0.0610,-2.2561,-5.0000,,,
0.8411,0.7600,1.6320,-0.9146,-4.5732,-5.0610,,,
0.8191,0.7568,1.5884,,,,,,
,,,-5.9146,-10.6098,0.7317,-29.5000,-117.0625,-0.3750
0.8491,0.7544,1.5488,-10.6707,-11.5854,2.8049,,,
0.9540,0.7516,1.6636,-10.3659,-10.4268,2.3171,,,
0.8840,0.7539,1.6868,-8.1707,-3.3537,2.4695,,,
0.8125,0.7200,1.6925,-3.7195,-2.5610,2.6220,,,
0.9399,0.7480,1.6990,1.0976,-6.1890,1.0976,,,
0.7703,0.8207,1.7067,,,,,,
0.8755,0.8345,1.6648,3.9024,-6.5244,3.4756,,,
,,,,,,-28.7500,-116.3750,0.3750
0.8768,0.7398,1.6730,2.1341,-4.6341,2.0732,,,
0.8542,0.7026,1.6594,,,,,,
0.7908,0.6562,1.6575,4.2683,-5.1829,-0.1220,,,
,,,4.6951,-5.1220,1.3415,,,
0.7859,0.6633,1.6477,,,,,,
0.8958,0.7251,1.6658,8.0488,-5.4268,1.3415,,,
0.9890,0.7075,1.6543,8.6585,-3.1098,-0.9756,,,
0.9048,0.6802,1.6316,7.1646,-0.3049,-1.0061,,,
0.8767,0.7490,1.5635,,,,,,
,,,3.9634,-2.1341,-1.3415,-28.7500,-115.6250,0.3750
0.8438,0.7910,1.5359,1.7073,-4.7561,-0.6098,,,
0.8242,0.7969,1.5769,-0.6707,-6.3415,0.2439,,,
0.8879,0.7877,1.6023,,,,,,
0.9209,0.7556,1.6204,-4.7561,-1.0366,1.8902,,,
0.9062,0.7788,1.6260,-3.9634,2.3780,0.2439,,,
0.9172,0.8274,1.6965,-3.9329,4.5732,-0.3659,,,
0.8459,0.7966,1.6975,-0.9756,-0.7317,2.0122,,,
0.7615,0.7532,1.6653,0.9146,-2.7439,2.8049,,,
0.8320,0.7327,1.6951,,,,-29.1250,-115.6250,-1.1250
0.9243,0.7432,1.6895,4.3902,-8.9024,4.2073,,,
0.9038,0.7297,1.6450,4.2683,-7.1341,2.9878,,,
0.9494,0.7333,1.6063,4.3293,-4.8171,-0.0610,,,
,,,3.7805,-2.5610,-1.0366,,,
0.9248,0.7584,1.5991,1.7073,2.8049,-1.7073,,,
,,,0.3049,5.3049,-1.7073,-30.1875,-115.6250,0.0000
0.8506,0.7607,1.5837,-0.5488,3.5366,-1.4634,,,
0.8342,0.7690,1.5830,,,,,,
0.8467,0.7561,1.6196,-1.3415,-0.1220,-0.6098,,,
0.8630,0.7410,1.6499,-0.6098,-2.0732,-0.0610,,,
0.8786,0.7505,1.6553,-0.7622,-0.9451,0.8232,,,
0.8828,0.7585,1.6328,-0.9756,-0.1220,1.5244,,,
0.8860,0.7534,1.6284,-0.3659,0.4268,1.4634,,,
0.8999,0.7466,1.6343,-0.0610,1.2195,1.5854,,,
0.9048,0.7490,1.6216,0.4268,2.8049,1.3415,,,
0.8794,0.7500,1.6082,-0.7927,4.1463,1.1585,-28.7500,-116.3125,-0.7500
0.9104,0.7629,1.6489,,,,,,
0.9041,0.7676,1.6001,-1.2195,2.2561,0.8537,,,
,,,0.0000,2.1951,-0.0610,,,
0.8785,0.7538,1.6548,-1.2195,2.6829,-0.0610,,,
0.8982,0.7466,1.6501,0.2439,1.6463,-1.3415,,,
0.8723,0.7441,1.6594,-0.2439,4.0854,-1.4024,,,
0.9036,0.7554,1.6479,-0.3659,4.8171,-0.3659,,,
0.8853,0.7550,1.6521,0.2134,4.8171,-0.9756,,,
0.8452,0.7634,1.6526,0.4878,3.6585,-0.7317,,,
0.8325,0.7686,1.6675,,,,-30.1875,-115.6250,-1.8750
0.8462,0.7668,1.6311,0.1830,1.6768,-0.0305,,,
0.8506,0.7578,1.6261,-0.6098,-2.1951,-0.1829,,,
0.8770,0.7478,1.6355,,,,,,
,,,-0.2439,-2.5000,0.1829,,,
0.9065,0.7456,1.6528,-0.4268,-0.6707,0.0000,,,
0.9124,0.7551,1.6411,-0.5488,1.8293,-0.1829,,,
0.8972,0.7512,1.6365,-1.0366,4.0854,-0.4268,,,
0.8748,0.7468,1.6392,-0.4878,5.1829,-0.4268,,,
0.8660,0.7454,1.6433,-0.1220,5.0610,-0.6098,,,
0.8708,0.7480,1.6528,-0.4878,4.3902,-0.6707,-28.7500,-116.6875,-0.3750
0.8603,0.7598,1.6577,-0.0610,2.4390,-0.1220,,,
,,,0.5488,1.2805,0.4268,,,
0.8257,0.7594,1.6542,0.4878,-0.3049,0.1220,,,
0.8742,0.7567,1.6250,0.6707,-1.8902,0.1220,,,
0.8970,0.7517,1.6707,-0.6707,0.3049,0.6098,,,
0.8723,0.7642,1.6619,-0.3354,2.1951,0.1525,,,
0.8616,0.7637,1.6387,-0.4878,1.2805,0.0000,,,
0.8638,0.7522,1.6489,,,,-29.8750,-116.3750,-0.7500
,,,0.1220,0.9146,0.1220,,,
0.8677,0.7532,1.6528,0.4268,1.2195,-0.2439,,,
0.8623,0.7500,1.6528,0.3659,1.8902,0.2439,,,
0.8594,0.7446,1.6472,0.7927,1.4024,0.4268,,,
0.8589,0.7402,1.6526,0.9756,1.0366,0.4878,,,
0.8606,0.7471,1.6553,1.3415,0.3659,0.2439,,,
0.8447,0.7529,1.6255,1.7073,0.4878,0.5488,,,
0.8376,0.7593,1.6597,1.1585,1.3415,1.5244,,,
0.8696,0.7634,1.6653,1.6463,0.2439,0.1829,,,
0.8826,0.7639,1.6709,0.4878,-0.3049,-0.1829,,,
,,,,,,-28.7500,-116.0000,-1.1250
0.8433,0.7627,1.6453,,,,,,
0.8723,0.7532,1.6450,-0.6098,1.3415,0.9146,,,
0.8778,0.7444,1.6518,0.4574,0.5183,0.1677,,,
0.8557,0.7524,1.6331,0.0000,2.1951,0.1220,,,
0.8599,0.7498,1.6277,0.2439,1.9512,0.4878,,,
0.8555,0.7542,1.6561,0.0305,1.8598,0.2744,,,
0.8333,0.7612,1.6477,,,,,,
,,,0.4878,2.0732,1.2195,-28.7500,-115.6250,-1.1250
0.8523,0.7529,1.6702,,,,,,
0.8582,0.7495,1.6606,0.9146,-1.3720,0.1525,,,
0.8530,0.7556,1.6528,1.6463,-1.3415,0.2439,,,
0.8643,0.7664,1.6416,1.2805,-0.4878,0.4878,,,
0.8705,0.7618,1.6471,0.8232,0.4879,0.0610,,,
0.8541,0.7603,1.6389,0.6098,0.9756,-0.3049,,,
0.8576,0.7552,1.6563,0.0305,0.9299,-0.0305,,,
0.8682,0.7576,1.6536,0.6098,0.4268,-0.3659,,,
0.8542,0.7559,1.6423,0.6098,0.9756,0.0000,,,
0.8357,0.7539,1.6357,0.5488,0.7927,0.7927,,,
0.8364,0.7488,1.6521,0.4878,0.7317,0.7927,,,
0.8623,0.7446,1.6670,0.5488,-0.1829,0.1829,,,
0.8748,0.7576,1.6702,0.3049,-0.0610,-0.2439,,,
0.8582,0.7705,1.6497,0.3049,0.2439,0.1829,,,
0.8389,0.7664,1.6375,0.4268,-0.7927,0.7927,,,
0.8279,0.7578,1.6328,0.9756,-2.0122,0.1829,,,
0.8413,0.7576,1.6382,0.6707,-2.2561,0.3049,-29.8750,-116.6875,-1.1250
0.8711,0.7673,1.6501,,,,,,
0.8841,0.7677,1.6524,-0.9756,1.0976,-0.1829,,,
0.8655,0.7632,1.6497,-1.2195,1.8293,-0.5488,,,
0.8418,0.7490,1.6433,-1.7683,1.2805,-0.6707,,,
0.8259,0.7458,1.6414,-1.0976,0.8537,-0.3049,,,
0.8345,0.7502,1.6562,-1.1585,0.3659,0.5488,,,
0.8613,0.7551,1.6558,,,,,,
0.8845,0.7620,1.6382,-0.6707,0.0000,-0.1220,,,
0.8837,0.7622,1.6640,-0.9451,0.1525,-0.2439,-28.3750,-115.6250,-0.7500
0.9033,0.7659,1.6523,-0.9451,0.3963,-1.2805,,,
0.8472,0.7759,1.6086,-2.5610,4.0854,-0.4268,,,
0.8110,0.7673,1.5796,,,,,,
0.8752,0.7512,1.5918,-3.7805,7.7439,0.5488,,,
0.9590,0.7356,1.5996,-4.6341,8.7805,0.0000,,,
,,,-4.9390,12.2561,-1.7073,,,
0.9744,0.7190,1.6660,,,,,,
0.9001,0.7043,1.7395,-6.8902,21.4024,-2.3780,,,
0.8801,0.7153,1.7097,-6.3415,28.3537,-1.4024,,,
0.8923,0.7314,1.6221,-4.2683,29.2683,-2.4390,,,
,,,-3.4756,29.2683,-2.2561,,,
0.7942,0.7235,1.6598,-4.1463,33.2317,-1.5854,-29.1250,-116.3750,-0.7500
0.7783,0.7148,1.7117,-4.4512,35.8231,-1.7683,,,
0.7904,0.7398,1.6929,-4.7561,36.5854,-0.4878,,,
0.7067,0.7757,1.6957,-4.8780,32.4695,0.1220,,,
0.6428,0.7849,1.7407,-1.7073,21.8902,-0.6707,,,
0.6223,0.7593,1.7373,-2.6220,15.3659,-0.3049,,,
0.6240,0.7402,1.7266,-1.0366,11.0976,-0.1829,,,
0.6411,0.7598,1.7859,,,,,,
,,,0.0000,5.0610,-0.9146,-27.6875,-115.6250,-2.3125
0.7402,0.7285,1.7151,0.5488,2.3780,-1.0976,,,
0.7407,0.7380,1.7493,-1.9512,6.2805,-0.7317,,,
0.6682,0.7426,1.7247,0.3354,3.2622,1.2805,,,
0.7444,0.7295,1.7249,-0.7927,3.4756,1.8902,,,
0.7556,0.7454,1.7231,0.1829,3.3537,-0.9146,,,
0.6720,0.7227,1.7336,1.1585,1.5244,-0.7927,,,
0.7097,0.7429,1.7180,2.1646,-3.0488,-0.0610,,,
,,,2.0122,-5.4878,0.3049,-25.5000,-116.3750,-1.8750
0.7651,0.7383,1.7063,,,,,,
0.7620,0.7200,1.6968,0.4878,-1.2195,0.5488,,,
0.6934,0.7112,1.6982,-2.3171,3.7195,1.2195,,,
0.7067,0.7305,1.7353,1.2805,0.9756,0.9451,,,
0.7314,0.7578,1.7080,3.1707,-5.0000,0.1220,,,
0.7026,0.7551,1.7090,2.5610,-3.7195,0.1829,,,
,,,1.5854,-3.1098,0.6098,,,
0.7002,0.7271,1.7053,,,,,,
0.6899,0.7295,1.7275,0.9756,-1.8598,2.7439,,,
,,,,,,-27.3125,-116.3125,-1.1250
0.7446,0.7451,1.7102,,,,,,
0.7375,0.7402,1.7085,0.5183,-3.2927,1.7988,,,
0.7336,0.7498,1.7200,0.7927,-4.2683,1.0366,,,
0.7546,0.7510,1.7163,0.8537,-3.1098,0.5488,,,
0.7798,0.7461,1.7014,0.2439,-0.8537,0.3049,,,
0.7688,0.7387,1.7084,,,,,,
0.7219,0.7244,1.7390,-0.0305,3.1402,-0.7012,,,
0.7092,0.7205,1.7339,1.3415,1.3415,-0.4268,,,
,,,,,,-26.5625,-116.3750,-1.8750
0.7058,0.7368,1.7200,1.4634,-1.3415,1.0366,,,
0.7117,0.7449,1.7034,1.4634,-1.7683,0.6098,,,
0.7219,0.7410,1.7029,0.4878,-0.7317,1.2805,,,
0.7329,0.7324,1.7065,0.1829,0.3659,1.2195,,,
0.7368,0.7489,1.7170,0.6402,0.6707,0.1830,,,
0.7009,0.7395,1.7380,0.9756,-1.8293,0.7927,,,
0.6875,0.7368,1.7351,1.1585,-4.4512,0.6707,,,
0.7053,0.7485,1.7139,0.7927,-5.7317,0.7317,,,
0.7234,0.7676,1.6851,0.3049,-4.8171,0.3659,,,
0.8108,0.7513,1.6856,-0.3049,0.2439,-0.7927,-25.8750,-116.3125,-1.1250
0.8074,0.7456,1.7178,-0.3659,4.8171,-2.0732,,,
0.6945,0.7512,1.7266,-1.7683,3.1707,-1.7073,,,
0.6057,0.7246,1.7173,-1.2195,0.4878,-1.7683,,,
,,,-1.8293,-6.0976,-1.1585,,,
0.5818,0.7192,1.7816,0.1220,-19.9085,-0.9146,,,
0.6228,0.7498,1.7581,2.7439,-29.7561,-2.4390,,,
0.6631,0.7764,1.7627,2.1951,-31.0366,-1.0976,,,
0.7830,0.7686,1.6736,4.3293,-27.6829,0.6707,,,
0.8691,0.7893,1.6733,3.5976,-21.7073,0.5488,,,
0.9497,0.8228,1.6448,1.5854,-17.1341,-0.1220,,,
0.9771,0.7717,1.6233,1.3415,-10.6707,-1.8902,,,
0.8870,0.7720,1.6367,-0.6707,-1.3415,-1.9512,,,
0.7524,0.7342,1.6955,-2.3476,3.8415,-3.0488,,,
0.7107,0.6963,1.7346,-1.0976,3.1707,-3.7805,,,
0.7036,0.6895,1.7429,-0.3049,1.2805,-3.4756,,,
0.7131,0.7153,1.7744,0.3659,0.3659,-2.5610,-28.0625,-116.6875,-0.7500
,,,3.4756,-9.5732,0.0610,,,
0.7383,0.7227,1.7124,5.0000,-14.2683,0.4878,,,
0.7280,0.7383,1.6719,5.1829,-14.3902,1.7683,,,
0.7476,0.7561,1.6465,4.3902,-12.6220,2.8659,,,
0.8042,0.7563,1.6589,3.8415,-11.3415,2.0122,,,
0.8503,0.7566,1.6838,2.9268,-9.1463,1.0366,,,
0.8647,0.7520,1.6667,2.4390,-6.7073,0.9146,,,
0.8368,0.7378,1.6397,1.4329,-1.6463,1.8598,,,
,,,,,,-27.6875,-115.6250,0.0000
0.8274,0.7373,1.6631,0.9146,-0.6098,1.0976,,,
0.8263,0.7499,1.6859,,,,,,
0.8018,0.7793,1.6887,1.1585,-1.9207,-0.6707,,,
0.7749,0.7773,1.6746,1.3415,-2.5000,-0.1220,,,
0.7722,0.7673,1.6597,,,,,,
0.7932,0.7581,1.6606,1.6768,-3.0488,0.3354,,,
0.8201,0.7515,1.6824,0.7317,-0.4268,0.5488,,,
0.8259,0.7559,1.6787,,,,,,
0.8081,0.7622,1.6804,-0.3659,1.1890,1.0671,-28.0625,-116.0000,-1.5000
0.7905,0.7607,1.6833,,,,,,
0.8139,0.7600,1.6870,0.7012,-2.8963,0.2134,,,
0.8223,0.7588,1.6770,1.4634,-2.2561,-0.1220,,,
0.8120,0.7629,1.6790,0.6098,1.2805,0.1220,,,
0.7991,0.7656,1.6714,0.5488,1.4634,-0.4878,,,
0.7969,0.7681,1.6633,0.1829,0.8537,-0.6707,,,
0.8000,0.7710,1.6682,-0.0610,0.6707,-0.3049,,,
0.8172,0.7712,1.6801,-0.1220,0.6707,-0.2439,,,
,,,0.0610,1.0976,-0.3049,-27.6875,-114.8750,-0.3750
0.8206,0.7632,1.6853,0.1829,1.8902,-0.1829,,,
0.7923,0.7366,1.6644,0.8537,0.2439,-0.3659,,,
,,,0.6098,0.4878,-0.6707,,,
0.8037,0.7371,1.6499,0.1220,0.5488,-0.3659,,,
0.8162,0.7390,1.6509,-0.3659,0.8537,0.0610,,,
0.8052,0.7432,1.6675,-0.3659,1.3415,0.1829,,,
0.7974,0.7461,1.6885,-0.3659,1.8293,0.1829,,,
0.7976,0.7412,1.6865,,,,,,
0.7952,0.7375,1.6904,-0.3049,2.0122,0.2439,,,
,,,-0.1829,1.8902,0.4268,-27.3125,-115.2500,0.0000
0.7852,0.7490,1.6836,,,,,,
,,,-0.0610,1.6463,0.0610,,,
0.7722,0.7561,1.6724,-0.1829,1.2805,0.8537,,,
0.7930,0.7471,1.6902,0.0610,0.1829,0.2439,,,
0.8264,0.7483,1.6931,0.7927,-1.2805,-0.5488,,,
0.8196,0.7735,1.6795,0.8537,-0.9146,-0.9146,,,
0.8005,0.7807,1.6619,0.7927,-0.1525,-0.4878,,,
0.7888,0.7710,1.6753,0.4268,1.7378,-0.1220,,,
0.7800,0.7551,1.6643,-1.2195,4.3293,0.6707,,,
,,,,,,-28.3750,-116.6875,-0.7500
0.7892,0.7392,1.7063,-1.8293,2.0122,0.0610,,,
0.7932,0.7400,1.6936,-0.9756,-3.2927,-1.3415,,,
0.7881,0.7605,1.6694,0.4878,-5.7927,-1.2195,,,
0.8208,0.7693,1.6770,0.3049,-4.6951,-0.4268,,,
0.8298,0.7681,1.6753,0.6707,-3.8415,0.0000,,,
0.7720,0.7558,1.6647,0.5183,-1.2805,-0.4573,,,
0.7932,0.7505,1.6768,0.1829,2.5000,1.2195,,,
0.8042,0.7571,1.6892,0.1524,1.2195,0.7927,,,
0.7981,0.7551,1.6841,,,,,,
0.7874,0.7473,1.6743,1.2805,-0.6098,0.6098,,,
0.7827,0.7500,1.6580,1.3110,0.3049,0.6402,,,
0.8086,0.7427,1.7397,0.4268,0.7927,0.5488,,,
0.8173,0.7638,1.6898,1.6463,-1.5244,-0.7622,,,
0.7710,0.7739,1.6467,1.8293,-2.8049,0.4268,,,
0.7939,0.7693,1.6252,1.6463,-4.3293,0.1829,,,
0.8042,0.7688,1.6575,0.1829,-1.6463,-0.1829,,,
,,,,,,-29.5000,-115.6250,-1.5000
0.7807,0.7392,1.6934,-1.2805,6.2500,-0.3354,,,
0.7720,0.7480,1.7173,-0.6707,2.7439,0.1220,,,
0.7661,0.7612,1.6819,1.5244,-4.0854,-0.3354,,,
0.8064,0.7724,1.6717,,,,,,
0.8071,0.7766,1.6270,1.4634,-3.2927,0.0000,,,
0.8035,0.7625,1.6360,-0.4573,0.4573,-0.2744,-28.0625,-116.0000,-0.3750
0.8306,0.7566,1.6697,,,,,,
0.8269,0.7607,1.6655,-2.5610,3.9634,-0.8537,,,
0.7939,0.7538,1.6606,-2.7134,3.1707,-0.3354,,,
0.7725,0.7522,1.7305,-1.8293,0.6098,0.0000,,,
0.7368,0.7778,1.7205,-0.1220,-1.9512,0.4268,,,
0.7816,0.7720,1.6985,0.6098,-4.5732,0.8537,,,
0.7830,0.7415,1.6575,-0.0610,-6.5854,0.4878,,,
0.7866,0.7327,1.6794,0.5488,-5.6098,0.6707,,,
0.7993,0.7473,1.6838,0.1220,-5.6707,1.0366,-27.3125,-117.4375,-0.3750
0.8025,0.7607,1.6746,-0.1829,-5.0000,0.0000,,,
0.8169,0.7700,1.6921,-0.0610,-3.1098,-0.7317,,,
0.8013,0.7716,1.6996,-1.2195,1.1890,-1.1890,,,
0.7644,0.7551,1.7590,-1.4024,2.3171,-1.3415,,,
0.7983,0.7412,1.7905,2.6220,-1.0976,-3.9634,,,
0.8020,0.7389,1.7043,5.6098,2.8049,-2.6829,,,
0.7751,0.7615,1.6116,7.5610,3.1707,-0.4268,,,
,,,5.4878,-1.1585,-0.3659,-28.7500,-116.0000,-0.3750
0.7841,0.7634,1.6054,6.2195,0.4878,-2.1341,,,
0.9304,0.7683,1.6277,3.3537,2.1951,0.1220,,,
0.9092,0.7908,1.6223,2.0122,7.1341,0.0000,,,
0.8379,0.7844,1.6143,-0.5488,9.7256,-1.7988,,,
0.7847,0.7822,1.5613,-1.8902,7.2561,-1.4634,,,
0.8013,0.7683,1.6428,,,,,,
0.7949,0.7546,1.6748,-3.3232,1.7378,-1.3720,,,
0.7402,0.7478,1.7141,-3.0488,2.6829,-0.6707,,,
0.7361,0.7385,1.7083,-3.0488,3.9024,0.9146,,,
,,,,,,-27.6875,-115.6250,0.0000
0.7332,0.7461,1.7009,-2.3780,3.0488,0.9146,,,
0.7390,0.7537,1.7251,,,,,,
0.7907,0.7585,1.6795,-1.0671,-0.2134,1.2195,,,
0.8210,0.7639,1.6548,-1.4634,-2.1951,2.1951,,,
0.7755,0.7600,1.7080,-1.5854,1.4024,2.2866,,,
0.7732,0.7500,1.6846,-2.3780,2.6220,3.4756,,,
0.7346,0.7710,1.7129,-1.1585,-0.7317,2.4085,,,
0.7505,0.7634,1.7007,0.3659,-5.0000,3.2317,,,
0.7812,0.7683,1.6697,0.9756,-7.5000,3.4146,-27.3125,-116.0000,-0.7500
0.7959,0.7649,1.6855,,,,,,
0.8228,0.7600,1.6807,1.3415,-8.1098,2.9268,,,
0.8284,0.7615,1.6833,1.3415,-5.9756,2.4390,,,
0.8000,0.7683,1.6902,0.1525,-0.9451,1.5854,,,
0.7656,0.7666,1.6978,-0.1829,0.6098,1.3415,,,
0.7627,0.7473,1.6960,0.4268,-0.5488,0.7317,,,
0.7864,0.7378,1.6865,0.9146,-2.5000,0.4268,,,
0.7937,0.7461,1.6860,0.9756,-2.9268,0.3049,,,
0.8022,0.7529,1.7073,0.8537,-2.6829,0.0000,,,
0.8091,0.7649,1.6592,2.0732,-2.8049,-0.0610,-27.6875,-116.0000,-0.7500
0.7944,0.7612,1.6775,1.0976,0.0610,0.3659,,,
0.7951,0.7587,1.6736,,,,,,
0.7793,0.7595,1.6748,0.0914,1.2805,0.1830,,,
0.7859,0.7542,1.7141,0.3049,-0.5488,0.7317,,,
0.7520,0.7676,1.6284,,,,,,
0.7668,0.7666,1.6851,0.6098,-4.6951,1.7683,,,
0.8338,0.7580,1.6716,2.6829,-6.4634,0.1829,,,
,,,2.3171,-3.7195,-0.4878,-27.6875,-116.3750,-0.3750
0.8002,0.7553,1.6580,1.0366,-0.6707,0.5488,,,
,,,-0.1220,0.0000,0.4268,,,
0.7961,0.7439,1.6714,-0.1220,-0.5488,-0.4268,,,
0.7952,0.7515,1.6790,-0.4878,0.1829,-0.2439,,,
0.8167,0.7686,1.6915,0.1830,-0.3658,-0.3354,,,
0.8284,0.7854,1.6936,1.1585,-2.1341,-1.4634,,,
0.8013,0.7810,1.6602,0.2439,-0.4268,-0.3049,,,
0.7863,0.7574,1.6762,-0.4268,2.5000,0.6707,-27.3125,-116.0000,-0.7500
0.8318,0.7441,1.7385,-2.1341,2.1341,0.0610,,,
0.7979,0.7583,1.6992,-0.7927,1.0366,-1.0366,,,
0.7405,0.7676,1.6389,0.0610,-0.4573,0.9146,,,
0.7107,0.7605,1.6321,2.0732,-3.6585,2.7439,,,
0.8380,0.7705,1.7049,0.7622,-7.4695,0.4573,,,
0.8547,0.7842,1.6724,-0.2439,-2.5610,0.1829,,,
0.7996,0.7800,1.6243,-2.2561,0.7927,1.3415,,,
0.7659,0.7686,1.6160,-2.7439,-0.7317,0.8537,-28.3750,-115.6250,-0.7500
0.7715,0.7512,1.6484,,,,,,
0.8105,0.7468,1.6990,-1.9512,-2.3171,0.3049,,,
0.8276,0.7546,1.7058,-2.5915,1.5244,0.0610,,,
0.8228,0.7581,1.7129,-3.3537,3.6585,0.3049,,,
0.7939,0.7583,1.6758,-1.8902,0.3049,-0.1220,,,
0.7661,0.7578,1.6899,-1.0976,-3.5366,-0.1220,,,
0.7720,0.7563,1.7024,-0.7317,-6.8902,0.2439,,,
0.7976,0.7593,1.6870,-1.1585,-8.2927,0.7317,,,
0.7959,0.7651,1.6672,-1.5854,-8.1098,-0.1829,,,
0.7893,0.7539,1.6626,-0.8537,-7.5610,-0.3659,,,
,,,,,,-28.3750,-117.0625,-0.7500
0.7913,0.7510,1.6809,0.1829,-8.4756,-0.7317,,,
0.7888,0.7434,1.6544,-0.8537,-2.0427,1.7683,,,
0.8735,0.7173,1.7891,-0.9146,-7.1341,-1.5244,,,
0.8524,0.7522,1.7269,1.7378,-11.4634,-2.2561,,,
0.7441,0.7654,1.5916,1.4634,-12.0732,0.6098,,,
0.8728,0.7332,1.5681,1.8293,-8.1707,-2.0732,,,
1.0122,0.7263,1.6162,-0.9756,1.7073,-2.7439,-28.7500,-115.2500,0.0000
0.9949,0.7385,1.7656,-3.6585,13.5366,-2.8049,,,
0.9031,0.7520,1.7341,-2.0732,12.0732,-5.6707,,,
0.7444,0.7327,1.6887,-0.4268,5.6098,-4.4512,,,
0.6475,0.7351,1.6680,1.9512,-0.3049,-1.7683,,,
0.7389,0.7453,1.6358,2.5915,-7.8659,1.4634,,,
0.8555,0.7373,1.6262,-0.0610,-6.4024,1.7073,,,
0.8721,0.7549,1.6716,-2.8659,-1.0366,1.1585,,,
0.9111,0.7620,1.6267,-2.3780,-0.6707,0.5488,-28.7500,-116.3750,-0.7500
0.8896,0.7529,1.6741,-2.6220,0.1220,0.6707,,,
0.8745,0.7842,1.6348,-4.0854,-2.1341,0.3049,,,
0.8350,0.7913,1.5662,-4.2683,-1.0366,-0.1829,,,
0.8386,0.7415,1.6370,,,,,,
0.8984,0.7422,1.7173,-3.2927,4.3598,-0.8841,,,
0.8264,0.7173,1.6702,-2.6220,7.8049,-1.2805,,,
0.7336,0.7234,1.6931,-1.2195,9.6951,-0.1829,,,
0.7357,0.7622,1.6974,1.4024,4.9695,-0.2439,,,
,,,2.8659,1.0366,1.3415,-29.5000,-115.6250,-0.7500
0.8059,0.7419,1.6873,,,,,,
0.8082,0.7347,1.6809,2.3780,2.5915,2.5305,,,
0.8281,0.7363,1.7031,2.6220,-0.8537,1.5244,,,
0.7979,0.7456,1.6714,2.1341,-2.3780,2.3780,,,
0.7699,0.7577,1.6620,1.7073,-3.7500,2.8354,,,
0.8201,0.7649,1.6262,1.5854,-5.3049,2.2561,,,
0.8672,0.7573,1.6545,0.4878,-2.3171,1.8902,,,
0.9266,0.7748,1.6616,-0.5488,0.5488,0.5488,,,
,,,-1.8293,3.4756,-0.5488,,,
0.8743,0.7729,1.6348,,,,-28.7500,-116.3750,-1.1250
,,,-2.1341,7.0122,-0.7317,,,
0.8479,0.7544,1.6445,-1.7073,8.1707,-1.2195,,,
0.8237,0.7427,1.6877,-2.1341,10.1829,-1.0976,,,
0.7957,0.7375,1.7065,-2.6829,11.7073,-0.7927,,,
0.7720,0.7295,1.6931,-2.0732,11.4024,-0.1220,,,
0.7571,0.7300,1.6721,-2.3171,9.3293,0.3049,,,
0.8078,0.7460,1.6524,-2.3171,7.4390,0.4269,,,
0.8506,0.7495,1.6890,,,,,,
0.8601,0.7561,1.6934,,,,,,
0.8027,0.7488,1.6841,-3.8415,10.2439,0.6098,-27.6875,-117.0625,-1.8750
0.7886,0.7363,1.7097,-4.1463,15.3659,0.7317,,,
0.8048,0.7309,1.7135,-2.0732,17.4390,-0.7317,,,
0.7393,0.7168,1.7285,-0.5488,17.2561,0.1829,,,
0.7493,0.7266,1.7080,-0.1829,15.4878,-0.2439,,,
0.7742,0.7434,1.6929,-0.3049,15.4268,-0.6707,,,
0.7988,0.7441,1.7075,-0.7317,16.2805,-1.2805,,,
0.7708,0.7397,1.6882,-1.3415,18.2317,-1.1585,,,
0.7419,0.7319,1.6804,-1.4634,19.9390,-0.4268,-26.1875,-114.5625,-0.7500
0.7676,0.7529,1.7271,-1.9207,20.6097,-1.6768,,,
0.6814,0.7620,1.7344,-2.1341,21.0976,-2.2561,,,
0.6333,0.7588,1.7256,-1.7683,17.1341,-1.0366,,,
0.6165,0.7410,1.7183,-0.3354,9.1768,-0.4269,,,
0.6467,0.7322,1.7112,-0.2439,6.2195,-0.3659,,,
0.6898,0.7247,1.7119,2.1341,4.4512,-1.0976,,,
0.7505,0.7397,1.7083,2.5000,2.6220,-1.9512,,,
0.7478,0.7351,1.7231,1.5244,4.3293,-2.5610,,,
0.7156,0.7471,1.7356,0.9146,7.6220,-2.6220,,,
0.7029,0.7581,1.7014,-0.5487,8.4146,-2.8049,,,
0.6682,0.7627,1.6919,-1.6463,6.8293,-2.1951,,,
0.6270,0.7571,1.7261,-1.7683,7.0732,-1.9512,,,
0.6459,0.7466,1.7405,-0.8232,6.2805,-1.3415,-25.5000,-116.0000,-1.1250
0.6790,0.7371,1.7698,,,,,,
0.6616,0.7354,1.7595,1.4024,5.1829,-0.1220,,,
0.6222,0.7366,1.7382,1.8293,2.8659,0.8537,,,
0.6565,0.7361,1.7402,2.6220,0.4878,0.5488,,,
0.6887,0.7380,1.7390,2.5610,-0.8537,0.0610,,,
0.7117,0.7266,1.7435,2.6829,1.3720,0.1829,,,
,,,2.3780,2.5000,-0.8537,,,
0.6992,0.7412,1.7185,2.5000,1.3415,-1.3415,,,
,,,,,,-24.7500,-117.4375,-1.1250
0.6750,0.7664,1.6973,,,,,,
0.6753,0.7706,1.6911,0.9451,2.4695,-1.4939,,,
0.6599,0.7375,1.7517,-0.5488,3.1707,-2.5000,,,
0.6616,0.7288,1.7878,0.1525,3.2622,-1.7683,,,
0.6553,0.7317,1.7344,1.2195,2.0122,-1.5854,,,
0.6138,0.7378,1.7280,1.8293,2.9878,-0.3659,,,
0.6510,0.7374,1.7372,1.4634,1.1585,-0.9451,,,
,,,,,,-26.5625,-115.6250,-2.3125
0.6445,0.7676,1.7341,,,,,,
0.6370,0.7614,1.7292,1.4634,-2.2256,-0.5793,,,
,,,2.1341,-5.7927,-1.0366,,,
0.6775,0.7510,1.7471,2.0732,-4.1463,-0.8537,,,
0.6849,0.7604,1.7281,1.2500,-1.1585,-1.1280,,,
0.6555,0.7534,1.7063,0.6098,-1.4024,-0.9756,,,
0.6719,0.7527,1.7380,,,,,,
0.6597,0.7578,1.7451,0.3659,-1.5854,-0.6707,,,
,,,0.1829,-0.9756,-0.7317,-24.7500,-116.3750,-1.1250
0.6288,0.7551,1.7469,0.4878,-0.8537,0.4878,,,
,,,0.7927,-2.5610,1.0366,,,
0.6470,0.7542,1.7542,1.3415,-3.1098,0.4268,,,
0.6316,0.7468,1.7244,1.2805,-2.1341,1.7073,,,
0.6367,0.7393,1.7190,1.2195,-1.4634,2.3780,,,
0.6702,0.7532,1.7241,0.9146,-2.5000,1.5854,,,
0.6797,0.7666,1.7085,0.4268,-3.1707,1.0366,,,
0.6768,0.7690,1.7029,-0.3049,-3.2927,1.6463,,,
0.6765,0.7668,1.7285,-0.4878,-2.8049,1.5854,,,
0.6965,0.7715,1.7214,,,,,,
0.7012,0.7642,1.7239,-0.6707,-1.6463,0.8537,-25.8750,-116.0000,-1.8750
0.6848,0.7610,1.7410,-1.3415,-0.1829,0.7317,,,
0.6724,0.7632,1.7319,-1.5854,1.3415,0.6098,,,
0.6701,0.7580,1.7528,-0.7622,1.9512,0.1220,,,
0.6953,0.7454,1.6838,-0.1220,4.6951,0.4268,,,
0.7171,0.7411,1.7517,1.0976,6.6463,0.1067,,,
0.7114,0.7402,1.7136,-0.5488,9.3293,-0.4878,,,
0.6113,0.7290,1.7595,-0.4878,10.1829,-0.7317,,,
0.6172,0.7415,1.7358,,,,,,
0.6357,0.7393,1.7188,0.3659,5.9756,-1.0976,,,
,,,0.8537,3.3537,-0.4268,,,
0.6553,0.7285,1.7209,,,,,,
,,,0.3049,3.2317,-0.2439,,,
0.6640,0.7526,1.7336,-0.6402,4.2073,-0.4878,,,
0.6572,0.7659,1.7544,,,,,,
,,,-0.8537,4.3293,-0.6707,-24.7500,-116.3750,-0.7500
0.6250,0.7681,1.7529,-0.5488,3.3537,-0.1829,,,
0.5874,0.7642,1.7629,-0.2439,1.0976,0.7927,,,
0.6547,0.7751,1.7384,1.9512,-4.8171,0.9756,,,
0.5347,0.7960,1.7604,-1.4634,-1.9512,-1.9512,,,
,,,-0.9756,-4.9390,-0.9756,-25.1250,-116.6875,-1.5000
0.5774,0.7937,1.7544,-0.2439,-20.4878,1.2805,,,
0.6213,0.8455,1.7522,0.1829,-26.0366,1.8902,,,
0.7123,0.8725,1.7077,0.0610,-24.7866,2.8049,,,
0.8416,0.8159,1.7522,0.4268,-18.1707,2.1341,,,
0.8601,0.7581,1.7307,,,,,,
0.8044,0.7672,1.7008,-0.6707,-9.7561,0.2439,,,
,,,-3.4146,-1.5244,-3.4756,-25.8750,-116.3750,-1.5000
0.7266,0.7375,1.6633,,,,,,
0.6399,0.6819,1.7237,-3.2774,-1.0366,-2.2256,,,
0.7092,0.6909,1.8301,-2.2561,1.3415,-2.9268,,,
0.7891,0.6467,1.7913,-0.9146,4.0854,-3.2927,,,
0.7878,0.6223,1.6975,-0.4268,5.1829,-4.4512,,,
0.6917,0.6697,1.6641,-1.5854,3.8415,-5.4878,,,
0.6794,0.7178,1.7434,-0.4878,3.9024,-8.5366,,,
0.6597,0.7148,1.6816,-1.6463,1.6463,-7.9878,,,
0.6223,0.7468,1.7031,-3.1098,6.1585,-9.6951,-25.5000,-115.2500,-1.5000
0.6052,0.7942,1.7820,-4.1463,2.0732,-10.0000,,,
0.6541,0.8640,1.7817,-3.6585,-8.5976,-11.7683,,,
0.6844,0.8358,1.7958,-2.0122,-17.2865,-12.2561,,,
0.7126,0.8254,1.8240,-1.5854,-17.8659,-8.4146,,,
0.6370,0.8262,1.7702,-1.4329,-19.3903,-7.6829,,,
0.5481,0.8335,1.6833,-3.3537,-23.4146,-7.3171,,,
0.5000,0.8142,1.6345,-4.0854,-27.1951,-4.6951,,,
0.4944,0.7971,1.5627,-4.7561,-32.8659,-2.8659,,,
,,,,,,-25.5000,-116.6875,-1.5000
0.6155,0.7781,1.4790,-4.5732,-38.7195,-1.5854,,,
0.8678,0.7491,1.5004,-7.9878,-37.5609,-3.7805,,,
0.9841,0.7083,1.6111,-11.2195,-23.5976,-2.6829,,,
0.9500,0.6694,1.6885,-12.3171,-11.5244,-0.9756,,,
0.8124,0.6213,1.8066,-10.7927,-0.6707,0.1830,,,
0.7200,0.5774,1.8904,-5.3659,-5.9146,0.9146,,,
0.6877,0.6016,1.8647,-0.3049,-15.5488,1.6463,,,
0.6628,0.6260,1.8015,3.1707,-20.9146,4.0244,-27.6875,-114.1875,-2.6875
0.6672,0.6375,1.7356,4.6341,-25.3049,6.6463,,,
0.6833,0.6431,1.6609,4.5732,-29.0244,7.5610,,,
0.7322,0.6581,1.6046,4.7256,-31.0366,8.4146,,,
0.8398,0.6875,1.6284,3.2317,-25.3659,8.2317,,,
0.9280,0.7065,1.6721,2.5000,-17.8659,6.8293,,,
0.9973,0.7213,1.6991,0.9451,-4.6341,4.6037,,,
0.9810,0.7373,1.6482,-1.2805,3.1098,1.8902,,,
0.9456,0.7490,1.6191,-1.8293,4.3902,0.2439,,,
0.9075,0.7583,1.6316,-1.8293,4.8780,-0.6707,-28.3750,-114.5000,-1.5000
0.8630,0.7700,1.6606,,,,,,
0.8301,0.7649,1.6689,-2.3780,6.3415,-0.6707,,,
0.7975,0.7375,1.6970,-2.2256,8.7500,0.0915,,,
0.7952,0.7346,1.7212,-2.1341,12.0122,0.5488,,,
,,,-1.0366,12.6829,0.8537,,,
0.7902,0.7244,1.6812,-0.4878,10.3049,1.4329,,,
0.7395,0.7017,1.6812,0.0610,7.9268,2.8049,,,
0.7441,0.6929,1.6777,0.4878,3.6585,3.2927,,,
,,,,,,-27.6875,-115.2500,-3.4375
0.7315,0.6961,1.7135,1.0671,-0.2134,3.6280,,,
0.7937,0.7173,1.7239,1.4634,-3.2317,3.1098,,,
0.8132,0.7471,1.7188,,,,,,
0.8623,0.7587,1.6955,0.8537,-0.0915,1.7378,,,
0.8557,0.7664,1.7095,-0.1829,3.1098,0.6707,,,
,,,-1.4634,3.5976,0.0610,,,
0.8154,0.7648,1.6703,-1.6159,1.6159,-0.7012,,,
0.7795,0.7405,1.6653,-2.5000,0.1220,0.4268,,,
0.7756,0.7239,1.6995,-1.9512,-0.7317,0.1220,-28.0625,-115.2500,-3.0625
0.8025,0.7048,1.7505,,,,,,
0.8179,0.7095,1.7483,-0.9146,-0.9756,0.0610,,,
0.7485,0.7244,1.6839,0.0305,-0.7927,0.0305,,,
0.6714,0.7097,1.5916,-0.4268,-1.7683,1.5244,,,
0.6934,0.6777,1.7009,0.5488,-6.0976,2.4390,,,
0.8408,0.6829,1.6755,-0.4878,-8.1707,3.9634,,,
0.9429,0.6931,1.7527,2.6220,-11.8293,2.5000,,,
0.9888,0.7075,1.8005,0.9146,-5.0000,2.0732,,,
0.9553,0.7354,1.7373,0.1830,2.2866,-0.2744,,,
,,,,,,-28.7500,-115.2500,-1.5000
0.8298,0.7405,1.6548,-0.4268,5.0000,-1.2195,,,
0.7200,0.7285,1.6018,0.0610,1.0976,-0.5488,,,
0.7388,0.7036,1.6667,-0.3659,-1.7683,0.3659,,,
0.8093,0.7141,1.6873,0.3659,-2.1341,0.3049,,,
0.8481,0.7240,1.7274,-0.4573,0.2744,0.8841,,,
0.8157,0.7290,1.7183,0.0610,-0.1220,0.4878,,,
0.7683,0.7341,1.6901,0.7622,-2.2256,0.7622,,,
,,,,,,-28.0625,-115.6250,-2.3125
0.7915,0.7366,1.6750,0.3659,-3.3537,0.1220,,,
0.8191,0.7283,1.6650,-0.1220,-2.0122,0.3049,,,
0.8076,0.7231,1.6680,-1.4024,-0.5488,0.8537,,,
0.8283,0.7012,1.6887,-2.4085,0.2439,0.4573,,,
0.8259,0.6882,1.7039,0.1829,2.8659,0.7927,,,
0.8701,0.6978,1.8362,-2.6829,2.9878,-0.7317,,,
0.8567,0.7262,1.7013,0.1219,0.1830,-2.2866,,,
0.7170,0.7324,1.5989,-0.0610,-1.5244,-0.4878,,,
,,,,,,-26.9375,-115.6250,-2.6875
0.7359,0.6976,1.5981,0.4878,-5.6098,0.3049,,,
0.8164,0.6667,1.6880,-0.2439,-2.4390,0.3049,,,
0.8442,0.7065,1.7378,-3.0488,4.0244,0.4878,,,
0.8367,0.7471,1.7114,-2.7439,6.5244,1.1585,,,
0.8154,0.7349,1.7229,-0.7927,3.4146,0.6707,,,
0.8386,0.7161,1.7747,1.0976,-2.2561,-0.6707,,,
0.8831,0.7266,1.7593,2.8049,-6.0366,-1.8293,,,
0.8457,0.7458,1.6875,3.1707,-6.2195,-1.0976,,,
0.7319,0.7495,1.6294,2.0732,-4.3902,0.2439,,,
,,,,,,-28.0625,-114.5625,-1.5000
0.6931,0.7256,1.6328,1.3415,-5.0610,0.9146,,,
0.8172,0.6997,1.6857,1.2195,-3.8110,-0.3659,,,
0.8459,0.7239,1.6221,-0.4268,-0.1829,-0.7927,,,
0.7385,0.7207,1.6179,-0.0610,0.1829,1.1585,,,
0.9016,0.7008,1.8296,2.2561,-7.4695,-1.9207,,,
0.9480,0.7583,1.8171,2.2561,-6.0366,-3.2317,,,
0.7803,0.8042,1.6648,0.3659,-3.1098,-2.3171,,,
0.6423,0.7817,1.5347,1.2805,-5.8537,-1.4024,,,
0.6887,0.7341,1.5054,1.5244,-7.2561,-1.2805,-29.5000,-114.8750,-2.6875
0.9194,0.7156,1.6013,0.4268,-6.0366,-2.3780,,,
1.0303,0.7207,1.8286,-1.0366,7.2561,-3.5976,,,
0.9596,0.7153,1.7571,-0.4573,14.1159,-0.8537,,,
0.6614,0.7014,1.6831,-0.5488,10.0610,0.4878,,,
0.6243,0.7107,1.6177,1.1585,-1.5244,0.1220,,,
0.8034,0.6536,1.5963,0.2744,-6.2500,3.2317,,,
0.9529,0.6506,1.6523,-4.1463,1.3415,4.3293,,,
0.9690,0.6812,1.6692,-3.9634,5.5488,0.6098,,,
0.9609,0.6843,1.6724,-3.0488,10.4878,-1.2805,-28.0625,-115.2500,-2.3125
0.9661,0.7090,1.6794,-3.4146,19.0244,-1.0976,,,
0.9392,0.7371,1.6482,-4.3293,27.1951,-2.1951,,,
0.8997,0.7473,1.6646,-5.7317,31.8902,-2.3780,,,
0.9014,0.7454,1.5918,-5.4878,35.3659,-3.6585,,,
0.8696,0.6924,1.6108,-6.7683,39.2683,-1.1585,,,
0.7415,0.6960,1.7524,-5.5488,44.3293,0.1220,,,
0.6370,0.7273,1.7981,-3.2927,40.6707,2.3780,,,
0.6303,0.7320,1.7492,-1.6463,38.8415,4.3293,,,
,,,-1.5854,38.1098,6.1585,-26.5625,-114.8750,-1.5000
0.7778,0.7170,1.7842,,,,,,
0.7236,0.7000,1.8420,0.0000,36.6463,5.5488,,,
,,,0.9146,37.1341,2.9268,,,
0.5798,0.7137,1.7942,1.3110,31.2195,3.6585,,,
0.5098,0.6924,1.7607,2.5000,16.4634,2.3780,,,
0.5366,0.7681,1.7395,1.8293,12.7439,1.1585,,,
0.7257,0.7713,1.7250,-0.3658,8.7195,1.7378,,,
0.7156,0.7476,1.7373,-2.0732,12.3171,-1.3415,,,
0.6863,0.7327,1.7825,-2.5610,13.1098,-0.4268,,,
0.6863,0.7112,1.7439,-3.0488,12.6829,-0.8537,-26.5625,-113.4375,-1.8750
0.6147,0.6982,1.7241,-3.2317,12.4390,-2.3780,,,
0.5938,0.6670,1.7625,-2.0732,12.5000,-2.8659,,,
0.6549,0.6679,1.7651,-1.6768,9.5732,-1.7683,,,
0.6306,0.6731,1.7595,-1.0976,9.0854,-1.3415,,,
0.5889,0.6824,1.7471,-0.7927,6.7073,-0.1829,,,
0.5518,0.6716,1.7668,0.6707,3.1707,0.7927,,,
0.5583,0.6770,1.7847,1.2195,-0.3659,1.1585,,,
0.6057,0.6958,1.7654,1.2195,-2.5610,1.4634,,,
0.6265,0.7017,1.7529,1.4634,-3.5976,2.4390,,,
,,,,,,-24.7500,-114.5625,-1.8750
0.6196,0.6970,1.7888,1.8293,-3.5976,2.5610,,,
0.6348,0.6895,1.8159,3.4146,-6.8293,1.9512,,,
0.6665,0.6980,1.8103,3.8415,-7.3780,2.3171,,,
0.6726,0.7258,1.7167,3.7805,-4.4207,2.1341,,,
0.6323,0.7239,1.7588,3.1098,-2.5610,2.0122,,,
0.6519,0.7166,1.7671,3.4756,-3.1707,2.0122,,,
0.6648,0.7210,1.7622,2.5305,-0.9146,1.4329,,,
0.6831,0.7422,1.6970,0.9756,0.1220,1.6463,,,
0.7000,0.7314,1.7390,0.1829,0.9756,1.4634,-26.5625,-116.3750,-2.3125
0.6904,0.7148,1.8064,0.8537,2.9268,-0.5488,,,
0.6078,0.7072,1.7775,1.4024,0.8841,0.6402,,,
0.5715,0.7151,1.7771,2.3171,-1.2195,0.7927,,,
0.6051,0.7170,1.7698,3.2317,-6.7683,0.4878,,,
0.6511,0.7229,1.7732,2.8049,-12.0122,1.0976,,,
0.6902,0.7368,1.7568,,,,,,
0.6929,0.7341,1.7073,0.4878,-9.0854,1.2805,,,
,,,0.6098,-7.1951,0.5488,-25.8750,-115.2500,-1.8750
0.6912,0.7383,1.7705,,,,,,
0.7722,0.7510,1.8015,2.6220,-3.4756,0.1829,,,
0.7141,0.7341,1.7441,-2.5305,1.4329,0.9146,,,
0.5955,0.7429,1.7312,-2.0732,5.7927,0.4878,,,
0.6174,0.7144,1.7334,1.3415,0.7317,-1.8902,,,
0.6561,0.6897,1.7620,0.2744,-0.7927,-0.8232,,,
0.6760,0.6702,1.7764,-0.6707,1.8293,-0.4878,,,
0.6541,0.6812,1.7625,-0.5488,3.8110,-0.5488,-25.8750,-114.1875,-2.6875
0.6455,0.7002,1.7415,,,,,,
0.6487,0.7000,1.7451,-0.7927,2.8659,0.1829,,,
0.6489,0.7061,1.7314,-0.7317,3.2927,-0.5488,,,
0.6245,0.7109,1.7275,-1.0366,1.2195,0.1220,,,
0.6584,0.7115,1.7697,-0.5487,-2.0427,0.5183,,,
0.7202,0.7188,1.7988,1.2195,-2.7439,-0.0610,,,
,,,-1.1585,-0.3659,0.5488,,,
0.7071,0.7392,1.7677,-1.1585,4.3598,-0.2744,,,
0.6438,0.7266,1.7688,-0.3049,6.5854,-1.3415,,,
,,,,,,-24.3750,-115.2500,-2.3125
0.6392,0.7200,1.7678,0.1829,5.0610,-1.7683,,,
0.6687,0.7271,1.7532,-0.0610,4.6341,-1.7073,,,
0.6586,0.7341,1.7528,-0.7317,7.8354,-1.1585,,,
0.6252,0.7288,1.7219,-1.0366,7.6829,-0.4878,,,
0.6216,0.7413,1.7660,-1.6463,4.7866,-2.1341,,,
0.6086,0.7476,1.7822,-2.5000,0.8537,-2.0732,,,
0.5469,0.7439,1.7646,-2.6220,-3.8415,-1.2805,,,
0.4915,0.7258,1.7466,-2.3780,-10.0000,-0.5488,,,
0.5020,0.6948,1.7615,-0.1829,-15.4268,-0.0610,,,
,,,,,,-24.0625,-115.2500,-3.0625
0.5888,0.6734,1.7705,0.7012,-20.8232,0.7926,,,
0.6626,0.7190,1.7568,-0.2439,-21.5244,-0.7317,,,
0.6875,0.7057,1.8455,2.1037,-19.6951,-1.2500,,,
0.7151,0.7473,1.7766,2.8049,-21.2195,-2.9878,,,
0.7012,0.7251,1.7156,2.9878,-22.8049,-3.4756,,,
0.6445,0.6786,1.6915,3.1098,-23.1098,-2.1951,,,
0.6729,0.6714,1.7195,3.1098,-25.0000,-0.4268,,,
,,,3.9024,-27.3780,0.0610,-26.5625,-115.2500,-2.3125
0.7728,0.7027,1.7508,5.6098,-27.7439,-2.0122,,,
0.8293,0.7520,1.6577,5.0000,-24.6951,-2.8049,,,
0.8625,0.7595,1.6082,1.8293,-18.5976,-2.2561,,,
0.8843,0.7327,1.6633,-0.3963,-11.4939,-2.2256,,,
0.8384,0.7056,1.7537,-0.2439,-2.6829,-2.3171,,,
0.7749,0.7085,1.7627,0.4268,0.4878,-1.1585,,,
0.7048,0.7141,1.7512,0.5488,0.8537,-0.5488,,,
0.6372,0.7046,1.7424,1.5244,-0.7317,0.4268,,,
0.6030,0.6802,1.7441,2.9268,-4.6341,1.9512,-26.5625,-114.8750,-3.0625
0.6423,0.6609,1.7024,3.7805,-8.3537,2.1341,,,
0.7458,0.6597,1.6504,2.9268,-8.9634,2.6220,,,
0.8789,0.6694,1.6879,-0.1524,-0.9146,1.2805,,,
0.8498,0.6918,1.7184,-2.9573,11.0976,0.3659,,,
0.8528,0.6936,1.7227,-4.2073,19.2073,-0.3049,,,
0.8774,0.7070,1.6511,-5.9756,29.0244,0.1829,,,
0.9468,0.7161,1.5967,-9.0244,40.3049,1.5244,,,
0.9968,0.7268,1.6704,,,,,,
,,,-11.7683,54.8171,0.4268,-27.6875,-114.1875,-1.5000
0.9326,0.7036,1.7573,,,,,,
0.5342,0.6359,1.8502,-10.9146,66.7988,-0.1220,,,
0.3870,0.6711,1.8154,-6.2805,62.9878,1.5244,,,
0.4894,0.6513,1.8214,-3.7500,47.8353,3.2622,,,
0.4102,0.6702,1.8000,1.2500,32.8963,3.7805,,,
0.3816,0.7014,1.7524,0.9146,15.7317,5.4268,,,
0.4989,0.7715,1.7698,2.6220,6.8902,2.8659,,,
0.6626,0.7964,1.7759,2.0122,5.9146,1.1585,,,
0.6628,0.7849,1.7588,-2.5000,2.5000,3.3537,-23.3125,-115.6250,-3.0625
0.5752,0.7700,1.8174,-2.0732,10.2439,-0.3049,,,
0.5823,0.7437,1.7947,0.3049,10.0610,-1.5244,,,
0.5454,0.7332,1.7903,0.8841,7.2256,-2.1646,,,
0.5330,0.7078,1.7683,0.9756,3.1098,-3.4756,,,
0.5488,0.7122,1.7710,0.5488,2.3171,-3.1098,,,
0.5435,0.7238,1.7877,-0.0610,2.5305,-2.3476,,,
0.5366,0.7026,1.8152,-0.6098,0.6098,-0.3659,,,
0.5239,0.6829,1.8093,-2.1951,0.4268,1.0366,-23.3125,-116.0000,-2.6875
0.4858,0.6895,1.8252,,,,,,
0.5181,0.6850,1.8291,2.9268,-12.8049,1.4634,,,
0.6067,0.6845,1.7934,3.7195,-9.5122,0.1220,,,
0.5752,0.7097,1.7629,2.5000,-7.8659,-0.4268,,,
0.5293,0.7192,1.7449,2.1951,-10.0610,-0.9756,,,
0.4885,0.7106,1.7437,2.7134,-16.8902,-1.1280,,,
,,,,,,-24.7500,-114.8750,-2.6875
0.5248,0.7477,1.7580,-1.6463,-25.3659,0.5488,,,
0.6443,0.7178,1.9109,-1.7683,-30.5488,-1.0976,,,
0.6846,0.7136,1.8149,-0.2439,-30.1220,-0.9146,,,
0.6853,0.8137,1.7964,1.1585,-32.5000,-0.6098,,,
0.5989,0.7825,1.8940,-0.9146,-31.9512,-3.3537,,,
0.5615,0.7224,1.8123,-0.6707,-31.4024,-5.1220,,,
0.5608,0.7622,1.7278,0.8232,-34.6647,-2.8049,,,
0.5547,0.7563,1.7271,0.2439,-40.6707,-0.6098,,,
0.5786,0.7168,1.7126,0.9146,-45.5488,1.4634,,,
0.6416,0.6880,1.7454,2.0732,-46.8293,3.0488,-25.8750,-114.1875,-1.8750
0.7544,0.6843,1.7444,1.9512,-42.8049,3.3537,,,
0.8730,0.7277,1.7180,0.6707,-33.5366,2.5000,,,
0.8572,0.7214,1.7021,-0.7927,-25.4878,1.3415,,,
,,,-0.8537,-18.5366,0.4268,,,
0.7828,0.6801,1.6938,-0.8537,-18.5366,1.4024,,,
0.7460,0.6451,1.6870,1.1280,-23.2317,1.7683,,,
0.7625,0.6365,1.7195,0.7927,-20.8537,3.4756,,,
,,,,,,-26.1875,-114.5625,-3.4375
0.8154,0.6505,1.7045,0.7317,-19.1463,2.6829,,,
0.8191,0.6707,1.6951,0.4268,-14.6951,3.4146,,,
0.7307,0.6506,1.7116,1.0976,-12.8659,4.6341,,,
0.8474,0.6604,1.7070,3.5366,-12.9878,4.6341,,,
0.9790,0.6797,1.6677,3.4146,-10.7927,3.8415,,,
1.0391,0.6982,1.6526,1.5854,-2.8659,1.7683,,,
0.9946,0.7131,1.6653,-0.7317,5.9756,-0.4878,,,
0.8516,0.7134,1.6760,-3.1098,11.4634,-2.8049,,,
0.7219,0.7227,1.6865,-2.8049,11.7683,-2.2561,-27.6875,-115.2500,-1.8750
0.6860,0.7349,1.6846,-2.9268,8.2927,-1.9512,,,
0.7087,0.7131,1.7148,-2.4390,2.8049,-1.0366,,,
0.7917,0.7067,1.7362,-0.7317,-0.9451,-0.7012,,,
,,,-0.4878,0.3049,-0.3049,,,
0.7830,0.7173,1.7212,-0.4268,2.5610,0.1220,,,
0.8285,0.7141,1.6892,-1.0061,3.4756,0.4573,,,
0.8503,0.6938,1.7156,-0.8537,3.9634,0.3049,,,
0.8230,0.7007,1.7292,-0.3659,4.5122,0.4878,,,
,,,,,,-28.3750,-114.1875,-1.8750
0.7720,0.7244,1.6956,,,,,,
0.7355,0.7235,1.6744,-1.0671,4.9390,1.6159,,,
0.7830,0.7051,1.6904,-1.2805,3.8415,2.1951,,,
0.7986,0.6948,1.7454,-1.2805,2.9878,2.5000,,,
0.8416,0.6987,1.7852,-0.6098,2.6220,2.3171,,,
0.8779,0.7151,1.7683,-0.1829,1.5854,1.2195,,,
0.8408,0.7271,1.7288,0.7317,0.0000,0.0610,,,
0.7678,0.7231,1.6924,1.2195,1.0366,-0.1829,,,
0.6985,0.7034,1.6428,0.5488,2.1951,0.2439,,,
,,,0.0000,2.0122,0.7927,-27.6875,-115.2500,-1.8750
0.6683,0.6745,1.6582,0.2439,-1.5854,1.8293,,,
0.7637,0.6631,1.7605,0.4878,-2.9268,1.0366,,,
0.8137,0.6848,1.7654,,,,,,
0.8293,0.6970,1.7585,1.3720,-2.6829,0.6402,,,
,,,2.3171,-2.4390,0.6707,,,
0.7898,0.7087,1.6941,3.2317,-2.7439,0.8537,,,
0.7332,0.7031,1.7529,2.1951,-2.8659,1.2195,,,
0.7732,0.7183,1.7173,0.9756,-4.4512,0.7927,,,
0.7773,0.7344,1.6184,0.7927,-3.1098,1.8293,,,
,,,,,,-28.3750,-113.8125,-2.6875
0.7612,0.6995,1.6907,0.3659,-1.4024,2.6220,,,
0.8160,0.7056,1.7073,-0.2134,-4.2073,1.0671,,,
0.7954,0.7043,1.7229,-1.4634,-2.0122,1.6463,,,
0.7966,0.7178,1.6643,-2.5000,-2.3780,2.0122,,,
0.8044,0.6956,1.6855,-2.0122,-1.7073,1.3415,,,
0.8428,0.6611,1.7451,-0.7927,-0.1829,0.7927,,,
0.8122,0.6775,1.7656,-0.6098,1.7378,0.6098,,,
0.6938,0.6980,1.7554,-0.3659,-0.9756,1.2805,,,
0.6699,0.7251,1.7068,-0.2439,-7.8659,1.8293,,,
0.7691,0.7147,1.7170,0.6098,-14.8780,2.3171,,,
0.8162,0.7358,1.7136,1.0366,-14.2683,2.3780,,,
0.8445,0.7397,1.7212,1.2195,-14.6341,3.3537,,,
0.8696,0.7280,1.6775,2.8049,-13.5366,2.6220,,,
0.9202,0.7227,1.6313,1.5244,-8.8415,3.1098,,,
0.8979,0.7041,1.6616,0.9146,-4.0854,2.3171,,,
0.8342,0.6816,1.6826,0.6098,-0.7317,2.4390,,,
0.8101,0.6770,1.6890,0.7317,-0.6707,2.9878,,,
,,,,,,-29.5000,-113.8125,-1.1250
0.8097,0.6928,1.6875,0.6402,-4.2378,2.2866,,,
0.8059,0.7019,1.6680,0.9146,-9.0854,2.0122,,,
0.8057,0.6831,1.6602,1.5244,-11.8293,2.5610,,,
0.8433,0.6858,1.6801,1.0061,-11.9817,2.2256,,,
0.8870,0.6804,1.7419,2.0732,-8.4756,1.3415,,,
0.9116,0.6836,1.7268,1.3415,-5.1220,1.0976,,,
0.8638,0.6851,1.7185,1.3415,-1.9512,0.4878,,,
0.8132,0.6841,1.6965,2.1341,-1.8902,0.4878,,,
,,,,,,-29.1250,-114.8750,-1.8750
0.7651,0.6780,1.6655,2.0122,-4.4512,0.6707,,,
0.7710,0.6736,1.6694,2.6220,-7.5000,0.6098,,,
0.8423,0.6832,1.6673,1.2500,-9.2683,0.6098,,,
0.8564,0.6975,1.6726,,,,,,
0.8599,0.7063,1.6929,0.0000,-10.0610,1.4634,,,
0.8723,0.7166,1.6870,0.0000,-12.3171,1.2805,,,
0.8982,0.7131,1.6638,1.0366,-12.3780,0.7317,,,
0.9482,0.7124,1.6511,1.5244,-10.0000,0.2439,,,
0.9368,0.7173,1.6731,0.7622,-3.2622,0.3354,-29.8750,-113.4375,-1.8750
0.8621,0.7080,1.6748,,,,,,
0.8154,0.6816,1.6624,0.4878,1.5244,-0.2439,,,
0.8468,0.6754,1.6623,1.2805,-1.6463,0.7622,,,
0.8987,0.6917,1.6777,2.1341,-4.9390,0.1829,,,
0.8967,0.7102,1.6716,1.6463,-5.0610,-0.3049,,,
0.8494,0.7148,1.6445,0.1220,-5.5488,0.6098,,,
0.8467,0.7036,1.6973,0.3049,-6.2195,0.5488,,,
0.9036,0.6985,1.6982,0.4268,-7.8049,-0.0610,,,
0.9023,0.7163,1.6655,1.1585,-8.5366,-0.4268,,,
,,,1.2195,-5.9146,0.4878,-30.2500,-115.6250,-1.5000
0.8960,0.7230,1.6848,0.8537,-4.4512,1.0366,,,
0.8657,0.7029,1.6765,1.5854,-5.3659,0.8537,,,
0.8354,0.7068,1.6814,1.9512,-5.7317,1.2805,,,
0.8477,0.7205,1.6492,1.5244,-8.6585,1.8902,,,
0.8796,0.7188,1.6357,1.7683,-12.6220,1.4634,,,
0.9153,0.7200,1.6365,1.7683,-14.4512,2.0122,,,
0.9399,0.7029,1.6296,1.6768,-14.6037,1.5244,,,
0.9644,0.6838,1.6343,1.5854,-10.3659,1.5244,,,
0.9585,0.6758,1.6531,1.7683,-5.2439,0.7927,-30.9375,-115.6250,-1.5000
0.9548,0.6848,1.6365,1.8293,-1.3415,0.1829,,,
0.9541,0.6958,1.6072,0.7927,0.1220,-0.1220,,,
0.9109,0.6914,1.6051,0.3659,-1.3110,-0.2135,,,
0.8918,0.6836,1.6135,1.1585,-4.3293,-0.2439,,,
0.9187,0.6899,1.6448,,,,,,
0.9482,0.6987,1.6672,1.4024,-5.0000,-0.2439,,,
0.9370,0.7058,1.6655,0.9146,-4.0244,-0.7317,,,
0.9116,0.7051,1.6572,0.4268,-2.0732,-0.5488,,,
,,,0.3659,-1.4024,-0.1220,,,
0.8884,0.7070,1.6492,0.3049,-1.6463,-0.1220,,,
,,,,,,-30.5625,-114.8750,-2.3125
0.8708,0.7132,1.6420,0.1220,-3.8720,0.8841,,,
0.9119,0.7063,1.6494,0.8537,-5.4268,1.0366,,,
0.9468,0.6965,1.6960,1.4024,-5.5488,0.6098,,,
0.9733,0.7047,1.6799,1.4329,-4.1463,0.2744,,,
0.9351,0.7212,1.6438,2.0122,-1.4634,0.0000,,,
0.9160,0.7283,1.5903,1.2805,-0.9146,0.0610,,,
0.9185,0.7142,1.6023,0.4879,-0.1829,0.7317,,,
,,,,,,-30.5625,-114.5625,-2.3125
0.9819,0.7129,1.6401,-0.3049,2.8049,-0.3049,,,
0.9722,0.6924,1.6921,-0.0610,6.3110,-0.8537,,,
0.9155,0.7241,1.6821,-0.3049,9.6951,-1.6463,,,
0.8884,0.7571,1.6326,-0.9146,9.8780,-1.2195,,,
0.9593,0.7298,1.6112,-0.5488,7.6829,-0.8537,,,
1.0068,0.7354,1.6240,-0.1220,7.9268,-2.7439,,,
0.9407,0.7183,1.6091,-1.1585,10.6707,-3.4146,,,
0.8284,0.7041,1.6189,-1.8598,12.1646,-1.8293,-29.8750,-114.1875,-2.3125
0.7666,0.6985,1.6831,,,,,,
0.8337,0.7070,1.7432,-0.3049,9.8780,-2.1341,,,
0.8923,0.6589,1.6427,-0.3659,4.3598,-2.6220,,,
0.9321,0.6665,1.6318,0.3049,2.9878,-2.0122,,,
0.9341,0.6914,1.6533,1.3415,4.9390,-3.1098,,,
0.9188,0.7023,1.6267,2.9268,10.9756,-1.3720,,,
0.9563,0.7009,1.5679,4.5122,18.8415,-0.9146,,,
0.9216,0.6763,1.5640,5.6707,25.1829,-1.4634,,,
0.8442,0.6753,1.5649,4.2378,27.5000,-1.1280,,,
,,,,,,-29.1250,-114.8750,-1.5000
0.7961,0.6877,1.6189,,,,,,
0.8393,0.6976,1.6757,2.2866,18.2622,-3.4451,,,
0.8857,0.7197,1.6670,0.4878,13.0488,-4.3902,,,
0.9033,0.7117,1.6821,-1.7073,12.5610,-4.7561,,,
0.8360,0.7024,1.6781,-2.4695,18.1097,-4.3293,,,
0.7029,0.7234,1.6848,-3.4146,16.5854,-2.8659,,,
0.7192,0.7202,1.6802,-3.1707,12.2561,-1.6463,,,
0.7466,0.7100,1.6814,-3.9634,6.4939,-0.2134,-28.3750,-113.8125,-1.1250
0.7881,0.7153,1.7151,,,,,,
0.8486,0.7166,1.7166,-4.9390,5.6707,-1.0976,,,
0.8680,0.7285,1.7077,-5.3659,9.1159,-0.0305,,,
0.8589,0.7463,1.6943,-5.8537,13.2927,-1.5244,,,
0.8408,0.7422,1.6931,-6.5854,15.0610,-2.1341,,,
0.8259,0.7339,1.6970,-6.8902,17.6219,-2.8659,,,
0.7998,0.7354,1.7219,-6.8902,19.9390,-3.5366,,,
0.7288,0.7241,1.7200,-6.4024,17.8049,-3.3537,,,
0.7236,0.7075,1.6917,-5.1829,13.5366,-2.6829,,,
,,,,,,-27.6875,-113.4375,-3.4375
0.7620,0.7034,1.7175,-5.3659,8.5976,-3.2927,,,
0.7505,0.6895,1.7527,-4.3293,6.7073,-3.1707,,,
0.7065,0.6841,1.7776,-3.1707,5.6098,-1.6463,,,
0.6499,0.7070,1.7497,-1.7683,0.5793,0.5183,,,
0.6401,0.6987,1.7295,-0.5488,-5.9146,1.7683,,,
0.7090,0.6902,1.7231,-0.1829,-8.4146,2.3171,,,
0.7734,0.6900,1.7365,-0.0610,-8.0183,1.5854,,,
0.8374,0.6787,1.7173,-0.2439,-4.8171,0.9756,,,
0.8831,0.6902,1.6921,-1.6463,0.0000,-0.2439,-27.3125,-114.5625,-2.3125
0.8904,0.6941,1.6907,-3.2317,4.9390,-1.7073,,,
0.8442,0.6909,1.7048,-4.4512,8.6585,-2.7439,,,
0.7552,0.6780,1.7274,-3.1098,8.2317,-3.2622,,,
0.7681,0.7117,1.7502,-3.3537,6.4024,-3.9634,,,
0.7773,0.7402,1.7832,-3.5366,6.5854,-4.8171,,,
0.7461,0.7561,1.7883,-5.8841,6.7988,-5.4878,,,
0.7075,0.7632,1.7664,-5.3659,2.3780,-3.1707,,,
,,,,,,-26.5625,-113.8125,-1.8750
0.6173,0.7639,1.7087,-2.7744,-9.4817,0.5183,,,
0.5757,0.7314,1.7705,-0.7317,-15.6098,2.2561,,,
0.7332,0.7046,1.7495,,,,,,
0.8267,0.6746,1.7195,-0.7317,-20.0610,3.1098,,,
0.8718,0.6550,1.7556,-2.9878,-14.3902,4.4512,,,
0.8794,0.6692,1.6721,-7.1341,-11.0366,3.7500,,,
0.8977,0.6467,1.6836,-6.1585,-4.2378,1.8598,,,
0.9431,0.6948,1.7271,-5.8537,-2.8049,0.3659,,,
0.7717,0.7571,1.6863,-6.1585,-4.8171,-0.9146,,,
0.6414,0.7395,1.7036,-2.9268,-6.9512,-0.7927,-28.3750,-113.4375,-2.3125
0.7761,0.7051,1.7837,-0.9146,-10.5488,0.3659,,,
0.8901,0.7622,1.7913,-0.4878,-9.5122,2.1951,,,
0.5773,0.7617,1.7774,0.0610,-12.2866,3.9634,,,
0.4165,0.6211,1.7034,6.8902,-17.8659,5.3049,,,
0.7727,0.5134,1.6289,8.2927,-23.2317,5.0610,,,
1.0891,0.4702,1.7456,7.4390,-17.5610,0.7927,,,
1.1555,0.5308,1.6995,5.9146,-2.2561,-2.8659,,,
1.0833,0.6162,1.6265,1.0976,11.2805,-3.5976,,,
,,,,,,-28.3750,-115.2500,-3.4375
0.8860,0.6597,1.5874,-1.2805,15.3659,-4.4512,,,
0.7380,0.6509,1.5940,-1.6463,11.0366,-4.2683,,,
0.6863,0.6009,1.6616,-1.2195,5.3659,0.3963,,,
0.7092,0.6194,1.7563,-1.7683,2.3171,3.1098,,,
0.7468,0.6279,1.7715,-0.1220,-0.7317,3.3537,,,
0.7547,0.6474,1.7509,2.0427,-3.7805,3.9634,,,
0.8120,0.6975,1.7141,2.5000,-6.0366,3.4146,,,
0.7954,0.7112,1.6782,2.4390,-4.5122,3.7195,,,
0.7964,0.7075,1.6743,2.1341,-3.7195,3.7805,-26.5625,-114.1875,-3.4375
0.7896,0.6812,1.6672,1.5244,-2.4390,3.4146,,,
0.8340,0.6672,1.7263,1.0976,-3.9024,2.8049,,,
0.8387,0.6658,1.6690,1.6463,-4.0854,2.0732,,,
0.7930,0.6577,1.7000,0.3659,-0.9146,1.7073,,,
0.8735,0.6460,1.7991,-0.1829,1.0976,2.5000,,,
0.8965,0.6825,1.7502,2.1341,-1.7073,-1.9207,,,
0.7888,0.7151,1.7388,1.0976,2.3171,-1.6463,,,
,,,1.9512,3.7195,-0.6098,-28.0625,-114.1875,-2.3125
0.7479,0.7141,1.6661,1.2195,1.1585,-0.6707,,,
0.7603,0.6770,1.6724,0.4878,-1.3415,0.4268,,,
,,,0.6707,-3.1098,1.4024,,,
0.8664,0.6704,1.7498,0.1525,0.4573,0.1829,,,
0.8516,0.6865,1.7473,-1.0976,6.9512,0.3659,,,
0.8066,0.7048,1.7122,-2.3171,7.9268,0.5488,,,
0.7581,0.6836,1.6935,-2.8659,5.1829,0.3659,,,
,,,-1.7073,0.0000,-0.2439,,,
0.7756,0.6389,1.7339,-0.5488,-3.5366,-0.3659,,,
0.8022,0.6519,1.7415,-0.6098,-4.9390,-0.5488,-27.6875,-113.4375,-3.4375
0.7839,0.6826,1.7532,-1.2805,-3.7805,-0.9756,,,
0.8286,0.6855,1.7529,-0.3659,-4.5122,-1.8293,,,
0.8691,0.6780,1.7156,0.6098,-3.4146,-1.5854,,,
0.8088,0.6758,1.6958,1.2805,-0.4268,-0.9146,,,
0.7985,0.6863,1.6866,0.2439,0.2439,-1.0976,,,
0.8140,0.6621,1.6707,0.4878,-0.8537,-1.2195,,,
0.8836,0.6609,1.6970,0.7012,2.8049,-1.0671,,,
0.8545,0.6658,1.7109,-0.6707,7.6829,-2.4390,,,
,,,-1.4024,10.9756,-2.1341,-28.0625,-113.4375,-3.0625
0.8286,0.6747,1.7127,-1.5854,11.5244,-1.7073,,,
0.8186,0.6753,1.7119,-1.2195,10.3049,-2.0732,,,
0.7974,0.6907,1.7249,-1.0366,10.3659,-2.1341,,,
0.7937,0.7109,1.7217,-1.0366,9.9390,-1.8902,,,
0.7568,0.7227,1.7141,-1.4634,9.2683,-1.2805,,,
0.7342,0.7299,1.7587,-2.4695,7.7134,-0.7622,,,
0.7732,0.6936,1.7825,-3.1707,2.7439,-1.6463,,,
0.8044,0.6902,1.7998,-0.9146,0.2439,-1.4634,,,
,,,-1.4634,3.0488,-2.0122,-27.3125,-114.5625,-1.8750
0.8032,0.7141,1.7134,,,,,,
0.7515,0.7031,1.7224,-2.6829,5.1220,-2.5610,,,
0.7866,0.6772,1.7693,-4.8780,8.0488,-1.8293,,,
0.8267,0.6777,1.7527,-3.4756,7.4390,-3.1707,,,
0.7864,0.7139,1.7317,-2.2561,8.0488,-3.3537,,,
0.7222,0.7344,1.6980,-3.3537,9.6341,-2.1951,,,
0.6882,0.7004,1.7488,-3.5976,8.2927,-0.9146,,,
0.7356,0.6741,1.7922,-2.8659,3.5976,-1.3415,,,
0.7257,0.6605,1.7355,-1.5854,-2.3171,-1.9207,,,
,,,-1.2805,0.8537,-2.0732,-28.3750,-112.6875,-2.6875
0.8113,0.6531,1.7583,,,,,,
0.7932,0.6572,1.7256,-1.0366,2.7439,-3.6890,,,
0.7117,0.6592,1.6997,-1.4634,6.2195,-1.5854,,,
0.7068,0.6343,1.7217,-0.6098,1.7073,-0.0610,,,
0.7590,0.6220,1.6751,0.8232,-4.6341,-1.2195,,,
0.7795,0.6243,1.7561,-0.5488,-3.8415,-2.9878,,,
0.7834,0.6192,1.7359,-0.6402,-1.6159,-3.2317,,,
0.7258,0.6523,1.6838,-0.0610,-0.8537,-1.7073,,,
,,,,,,-26.9375,-113.8125,-2.6875
0.7896,0.6812,1.7505,0.6098,-0.0610,-2.0122,,,
0.8762,0.6992,1.7456,1.2805,2.5000,-2.1341,,,
0.7446,0.6670,1.6944,-1.9817,10.7927,-1.4329,,,
0.8286,0.6560,1.8333,1.2805,12.0732,-0.9146,,,
0.7744,0.5908,1.8298,2.9268,20.6098,0.6098,,,
0.6512,0.6702,1.7279,1.7683,16.3415,-0.7012,,,
0.6467,0.6387,1.6956,3.0488,12.9268,0.6098,,,
0.6721,0.6147,1.6685,2.1951,11.5854,1.7073,,,
0.6838,0.5898,1.7004,3.0488,13.4756,0.7317,-26.9375,-114.8750,-2.3125
0.7000,0.5989,1.6963,2.5610,11.5854,1.5244,,,
0.6841,0.6167,1.7344,3.1098,5.8537,1.4634,,,
0.6731,0.5816,1.7430,5.0915,-0.7317,-0.0305,,,
0.7212,0.6331,1.7639,5.4268,-3.9024,-0.0610,,,
0.7251,0.6829,1.7571,5.7927,-4.6341,-1.7683,,,
0.7295,0.6990,1.8345,6.5854,-2.1951,-1.8293,,,
0.6946,0.7046,1.7590,4.8171,-3.5976,0.9146,,,
0.6860,0.7551,1.7097,3.7805,-7.2561,0.9756,,,
,,,3.2317,-14.8171,0.8537,-26.1875,-113.8125,-3.4375
0.7544,0.7271,1.8164,,,,,,
0.7434,0.7586,1.7847,4.7866,-14.0244,0.8841,,,
0.7136,0.7363,1.7556,3.8415,-15.9756,2.9878,,,
0.7069,0.7593,1.7138,4.1159,-15.0610,2.1037,,,
0.7295,0.7375,1.6995,3.3537,-18.5976,2.9878,,,
0.8086,0.7380,1.6995,3.1098,-21.0366,3.3537,,,
0.8743,0.7329,1.6848,1.3110,-19.3293,2.2256,,,
0.8411,0.6970,1.7051,0.0000,-11.8902,2.2561,-28.0625,-113.8125,-1.5000
0.7629,0.6770,1.7312,-0.2439,-10.3049,2.6829,,,
0.7168,0.6748,1.7073,0.0610,-13.0488,3.4756,,,
0.7158,0.6557,1.6921,0.7927,-18.6585,4.5427,,,
0.8164,0.6562,1.6929,1.5244,-19.0244,4.2683,,,
0.9633,0.6792,1.6885,1.7683,-13.0488,2.1951,,,
0.9773,0.7000,1.6616,0.6098,-4.0854,-0.2439,,,
0.8958,0.6858,1.6421,-1.4634,4.3293,-0.1829,,,
,,,-2.7439,9.0854,0.4268,,,
0.7932,0.6729,1.6770,-2.4390,9.6951,0.6707,-27.3125,-114.1875,-2.3125
0.7388,0.6724,1.6965,-1.3415,7.8659,0.0610,,,
0.7710,0.6700,1.7670,-0.1829,4.7866,1.3415,,,
0.8040,0.6973,1.7195,0.0610,2.6829,1.4634,,,
0.7844,0.6953,1.6909,0.3659,3.4756,2.9878,,,
0.8294,0.7006,1.7161,-0.1220,5.2134,2.0732,,,
0.8386,0.6995,1.6738,-2.0122,11.0976,2.2561,,,
0.7925,0.6799,1.6687,-1.8902,13.2317,2.7439,,,
0.7816,0.6810,1.7101,-1.8293,12.5610,2.1341,-28.3750,-115.6250,-1.8750
,,,-1.2195,11.9512,2.0122,,,
0.7827,0.6858,1.7490,-0.9146,11.3415,1.5244,,,
0.7610,0.6904,1.7659,-0.5488,9.6951,1.4634,,,
0.7244,0.6899,1.7327,-0.3659,7.0732,1.2195,,,
0.6873,0.6760,1.7185,0.2439,4.6951,1.8293,,,
0.7218,0.6763,1.7492,0.8537,2.0122,1.9512,,,
,,,0.4268,-0.1829,0.7927,,,
0.7708,0.7004,1.7485,-0.2439,-0.4878,0.4878,,,
0.7466,0.7234,1.7308,-1.7378,0.3049,1.5854,,,
0.7734,0.7253,1.7515,-1.8293,-0.4268,1.4634,,,
,,,,,,-28.0625,-114.5625,-3.4375
0.8069,0.7190,1.7568,-1.8293,0.2439,0.3659,,,
0.7983,0.6975,1.7805,-2.1341,3.4146,0.3659,,,
0.7793,0.6741,1.7628,-2.2256,4.8780,-0.7622,,,
0.7317,0.6804,1.6873,-2.9268,4.2073,-0.4268,,,
0.7039,0.6694,1.6953,-2.4390,2.2561,0.4878,,,
0.7134,0.6658,1.7275,-1.4634,-0.7317,0.2439,,,
0.7520,0.6724,1.7815,-0.7317,-2.2561,-0.1829,,,
0.8025,0.6848,1.7649,0.0000,-1.2195,-1.2805,,,
0.8096,0.6880,1.7168,-0.8537,2.0122,-0.7317,,,
0.7627,0.6821,1.7251,-2.1341,4.4512,-0.8537,-26.9375,-114.5625,-1.8750
0.7466,0.6772,1.7119,-1.9512,3.2927,-1.5854,,,
0.7463,0.6655,1.7209,-1.8902,1.2195,-1.4024,,,
0.7743,0.6720,1.7490,-2.0732,1.2195,-1.4634,,,
,,,-2.1951,2.1951,-1.7683,,,
0.7776,0.6856,1.7699,-2.8659,4.6341,-1.4024,,,
0.7147,0.6842,1.7599,-0.9146,4.6646,-1.6463,,,
,,,-0.3049,0.9146,-0.6098,,,
0.6604,0.6875,1.6975,-0.5488,-2.1341,0.5488,,,
,,,,,,-26.9375,-113.0625,-1.5000
0.6799,0.6794,1.7000,-0.1829,-4.7561,-0.0610,,,
0.7507,0.6775,1.7363,-1.0366,-5.6707,-0.5488,,,
0.8359,0.6774,1.7563,-1.3720,-0.1524,-1.5244,,,
0.8274,0.6877,1.7056,-2.8659,6.4024,-3.2927,,,
0.7639,0.6848,1.7473,-2.9878,7.6220,-2.9268,,,
0.7292,0.6565,1.7695,-1.0976,2.6220,-1.7988,,,
0.6733,0.6492,1.7966,1.0976,-1.4024,-1.0976,,,
0.6934,0.6511,1.7385,1.4024,-4.5732,-1.1585,,,
,,,,,,-26.1875,-114.5625,-3.0625
0.6978,0.6340,1.7329,0.5488,-5.6098,-0.9146,,,
0.7063,0.6377,1.7004,0.5488,-6.9512,-0.4878,,,
0.6980,0.6582,1.7095,-0.7317,-8.5976,-0.0610,,,
0.7075,0.6804,1.7058,-0.6707,-9.0854,0.7927,,,
0.8365,0.7067,1.7437,-0.3659,-5.2134,-1.7378,,,
0.8740,0.7100,1.7600,-1.0366,1.2195,-2.1341,,,
0.8352,0.6926,1.7095,-2.5610,1.0366,-1.2195,,,
0.7896,0.6301,1.7534,2.2561,11.2195,-2.3171,,,
0.8555,0.5906,1.8940,3.4756,17.1951,-0.4878,,,
0.8726,0.6238,1.7285,3.2317,16.5244,-2.5610,,,
,,,,,,-27.6875,-113.8125,-3.0625
0.7532,0.6804,1.7297,2.8659,24.4512,-4.5732,,,
0.7165,0.6302,1.6565,0.7317,25.0305,-2.0122,,,
0.5471,0.6436,1.5984,1.0366,16.2195,-2.4390,,,
0.5388,0.6333,1.7087,1.9512,12.7439,-0.6098,,,
0.6290,0.6097,1.7925,4.1768,7.8659,2.0122,,,
0.5906,0.6116,1.7800,6.4634,5.1220,2.8049,,,
0.5935,0.6265,1.8096,7.7439,1.0366,3.7805,,,
0.6218,0.6379,1.7649,9.4512,-3.3537,3.2317,,,
,,,,,,-25.8750,-114.5625,-3.4375
0.6746,0.6504,1.6848,10.0610,-6.1585,1.6463,,,
0.7823,0.7210,1.6544,6.8598,-9.2378,-0.8232,,,
0.9104,0.7712,1.7458,,,,,,
0.8816,0.7444,1.8647,4.4512,-10.1220,-4.0854,,,
0.6616,0.7301,1.8575,3.1402,-0.7317,-4.2073,,,
0.4231,0.7288,1.7493,4.0854,4.8780,-0.9146,,,
0.4175,0.7324,1.6570,1.8902,-7.5610,3.5976,,,
0.5872,0.7278,1.7483,3.7805,-25.0610,5.1220,,,
,,,5.6098,-37.8659,6.8293,,,
,,,,,,-27.3125,-115.2500,-1.5000
0.8359,0.7800,1.7727,3.7805,-37.9268,5.3049,,,
1.0330,0.8335,1.7334,1.0976,-36.5244,5.3049,,,
0.9748,0.7755,1.7618,0.1220,-18.8415,1.0061,,,
0.8047,0.7542,1.7424,-1.4634,-6.8902,2.3780,,,
0.5611,0.7056,1.7105,-0.2439,-7.2561,4.8171,,,
0.7058,0.6953,1.6165,3.9634,-25.1829,7.1951,,,
0.8857,0.6868,1.7405,3.9634,-26.2805,7.7439,,,
1.0127,0.7310,1.6772,2.8049,-18.5976,4.5732,-26.9375,-114.5625,-1.8750
0.9165,0.7236,1.6292,-0.2439,-13.1098,5.5488,,,
0.7605,0.6895,1.7224,1.4024,-14.5122,4.5732,,,
0.8119,0.6798,1.6332,1.1890,-19.0244,5.9146,,,
0.9277,0.6689,1.6108,-1.8293,-15.1829,5.0610,,,
0.8767,0.6687,1.6558,-4.1463,-8.9634,2.3780,,,
0.8198,0.6954,1.7339,-3.1402,-1.1280,1.5244,,,
1.0649,0.6777,1.7085,-3.4756,2.3171,-1.8902,,,
0.8845,0.6313,1.6943,-4.4512,10.9756,-4.3293,,,
,,,,,,-28.0625,-113.8125,-1.1250
0.7930,0.6421,1.6489,-5.1220,6.1585,-5.4268,,,
0.6988,0.6674,1.7101,-2.4085,4.5732,-5.2439,,,
0.8264,0.6228,1.7573,-0.2439,5.9756,-2.9878,,,
0.8762,0.6133,1.7529,0.2439,8.0488,-2.0122,,,
0.6195,0.6124,1.6240,2.1037,8.9634,1.1585,,,
0.8108,0.5945,1.5732,3.7805,-2.2561,1.8293,,,
0.9502,0.6143,1.5820,,,,,,
,,,0.6707,6.2805,0.8537,,,
1.1033,0.6812,1.5122,-4.9390,20.8537,0.2439,,,
1.2078,0.7056,1.4973,-10.7927,37.0122,-1.7683,-28.0625,-115.2500,-1.8750
1.0715,0.6904,1.5630,-13.9024,51.4024,-5.0610,,,
0.9180,0.6592,1.6211,-16.2805,55.9146,-6.1585,,,
0.8815,0.6181,1.7526,-14.9390,59.7561,-5.9451,,,
0.5669,0.5730,1.8977,-10.5488,65.0610,-4.4512,,,
0.4254,0.6316,1.9477,,,,,,
0.5671,0.6653,2.0740,-0.9756,46.7683,-1.0976,,,
0.7488,0.6780,1.9834,1.3415,33.3537,-3.3537,,,
0.6326,0.7305,1.8467,1.5244,20.2439,-3.1707,,,
,,,-0.7927,9.8780,-1.8293,,,
0.2583,0.8342,1.6917,-2.5610,-5.6098,2.9268,-25.1250,-114.8750,-2.3125
0.1418,0.9211,1.5386,,,,,,
,,,-2.3171,-23.4756,8.2927,,,
0.7075,0.9211,1.8280,-0.5793,-13.5976,8.9939,,,
1.1023,0.8003,1.9236,-1.6463,13.2927,2.4390,,,
0.7068,0.6663,1.9175,,,,,,
0.4824,0.5767,1.7406,1.5854,12.7134,0.0000,,,
0.8044,0.6218,1.6370,2.1341,-2.6220,-5.0610,,,
0.8495,0.6096,1.6461,-0.7317,4.7561,-7.0122,-25.5000,-113.0625,-3.0625
0.6531,0.6067,1.6509,-3.9024,14.5122,-5.2439,,,
0.5211,0.5908,1.7675,-5.2744,14.6646,-1.9817,,,
0.4861,0.5999,1.9287,-3.8415,6.2805,0.1220,,,
0.5239,0.6338,1.9111,0.0000,-1.9817,2.3476,,,
0.5438,0.6512,1.8462,4.2073,-10.0610,3.5366,,,
0.5728,0.6587,1.7739,5.6098,-14.6951,4.7561,,,
0.6025,0.6653,1.7520,5.7927,-15.6707,4.0854,-25.8750,-113.8125,-3.0625
0.6824,0.6885,1.7393,4.0244,-18.2317,3.8415,,,
0.6609,0.6816,1.7727,,,,,,
0.6343,0.6667,1.7825,5.4878,-20.1220,2.4390,,,
0.6448,0.6873,1.8018,6.0976,-24.0854,2.3171,,,
0.6592,0.7136,1.7847,4.1463,-30.0610,1.4634,,,
0.6809,0.6992,1.8245,3.9329,-35.0000,0.5183,,,
0.7278,0.6836,1.7971,4.6341,-35.3659,0.3659,,,
0.7756,0.7043,1.7754,3.6585,-33.4756,0.3659,,,
0.7692,0.7125,1.7726,4.3293,-48.3537,8.7805,,,
0.9011,0.7671,1.7427,4.8780,-49.8781,7.0122,,,
0.8416,0.7612,1.6704,0.9756,-45.7317,8.0488,,,
0.8010,0.6909,1.7102,1.5244,-40.3049,9.0244,,,
0.8088,0.6636,1.7251,3.7195,-38.4146,10.4268,,,
0.8547,0.7065,1.6951,5.9146,-39.1463,10.4268,,,
0.9094,0.7096,1.6475,6.5854,-40.6402,8.8415,,,
,,,5.5488,-37.8049,8.5976,-29.8750,-114.5625,-2.6875
0.9353,0.6924,1.5779,,,,,,
0.9639,0.6697,1.5884,3.4756,-34.3902,8.1707,,,
0.9888,0.6313,1.6484,2.8049,-31.8902,6.7073,,,
0.9827,0.6147,1.6614,1.9512,-27.3780,5.2439,,,
0.9661,0.6242,1.6470,-0.2744,-20.7927,4.4817,,,
0.8669,0.5967,1.6406,-3.5366,-17.9878,4.0244,,,
0.8147,0.5625,1.6436,-1.6463,-17.0732,3.4756,,,
0.8650,0.5889,1.6443,3.1402,-15.8841,3.3841,,,
1.0032,0.6296,1.6753,5.0000,-15.1220,-1.5244,,,
,,,,,,-31.3125,-113.8125,-1.8750
0.9866,0.6600,1.6615,-0.1829,11.5244,-2.6829,,,
0.7834,0.6897,1.5896,-1.0976,9.1463,-2.9878,,,
0.7839,0.7041,1.5955,-0.4268,-0.4268,-1.7073,,,
0.8730,0.7258,1.6162,0.3659,-13.7500,-0.3354,,,
0.9824,0.7434,1.6440,0.3659,-19.1463,0.3049,,,
1.0542,0.7134,1.6694,3.2317,-14.0244,0.6707,,,
1.0664,0.6951,1.6248,2.9878,-5.4268,1.2195,-32.0625,-115.2500,-2.3125
1.0186,0.7136,1.6169,0.0000,0.4878,2.5610,,,
0.9241,0.6858,1.6597,-0.3049,2.5610,2.1951,,,
0.9241,0.6526,1.6221,0.7927,-1.1585,1.7073,,,
0.9683,0.6409,1.5593,0.7317,-4.6951,1.2805,,,
1.0048,0.6250,1.5865,0.1220,-2.2561,0.4879,,,
0.9939,0.6658,1.6497,-1.5854,2.4390,0.6707,,,
0.9805,0.6904,1.6448,-2.0732,3.1707,0.2439,,,
0.9202,0.6577,1.6273,-0.8232,0.9451,-0.0305,,,
,,,,,,-31.6875,-113.4375,-2.3125
0.9177,0.6516,1.6487,0.2439,-2.2561,0.5488,,,
0.9596,0.6710,1.6647,0.5487,-3.0793,-0.2744,,,
0.9363,0.6692,1.6499,0.9756,-0.4878,0.3049,,,
0.9512,0.6631,1.6311,1.6463,-0.7317,0.3049,,,
0.9739,0.6775,1.6494,2.6220,0.1220,-0.7927,,,
0.9636,0.6843,1.6147,0.8537,2.8049,-0.9146,,,
0.9783,0.6787,1.6199,-0.5488,4.1463,-0.7317,,,
0.9347,0.6703,1.6130,-1.0366,1.2500,-1.3110,,,
,,,-0.6098,-2.5000,-0.6707,-31.3125,-114.1875,-1.1250
0.9534,0.6697,1.6160,,,,,,
0.9812,0.7012,1.6467,-0.2439,-2.8049,0.6707,,,
,,,-1.2195,-1.8293,0.4268,,,
0.9710,0.7240,1.6471,-2.4390,-2.3171,0.4573,,,
0.9329,0.6885,1.6624,-0.5488,-2.8659,0.6707,,,
0.9473,0.6880,1.6606,,,,,,
0.9846,0.6941,1.6519,0.6707,-3.3537,0.4268,,,
0.9897,0.6953,1.6362,1.7073,-2.4390,-0.1220,,,
0.9783,0.7026,1.6187,1.5854,-0.0610,-0.4878,,,
0.9758,0.7119,1.6301,0.8537,1.8902,-0.4269,-32.3750,-112.7500,-1.8750
0.9575,0.7078,1.6321,,,,,,
0.9521,0.6980,1.6418,0.3659,2.0122,-1.2805,,,
0.9314,0.6838,1.6274,0.0000,0.2439,-1.5854,,,
0.9084,0.6711,1.6184,-0.9451,-0.3353,-1.6768,,,
0.9375,0.6565,1.6287,-0.6707,-2.4390,-1.3415,,,
0.9622,0.6521,1.6577,-0.2439,-2.3780,-1.4634,,,
0.9885,0.6594,1.7039,-0.5488,-0.7317,-1.5244,,,
0.9788,0.6506,1.6804,-0.5488,2.3780,-2.2561,,,
0.9333,0.6677,1.6060,-0.8537,3.9024,-1.5854,,,
0.9441,0.6970,1.5750,-2.6220,2.1951,-1.2195,-32.0625,-113.8125,-1.8750
0.9475,0.6755,1.5996,-2.1341,-0.0610,-0.9756,,,
0.9319,0.6226,1.6392,,,,,,
0.9370,0.6191,1.6641,-0.4878,-1.5244,-1.1585,,,
0.9646,0.6667,1.7065,0.1220,-2.3171,-0.9756,,,
1.0107,0.6982,1.7056,-0.6707,1.2195,-2.3171,,,
0.9666,0.7183,1.6393,-1.7073,6.7988,-2.9268,,,
0.9470,0.6975,1.6101,-1.8902,5.0610,-2.3171,,,
0.9890,0.6672,1.6353,0.3659,3.9634,-2.1951,,,
0.9971,0.6870,1.6602,1.0976,6.3415,0.6707,-30.5625,-113.4375,-1.8750
0.9697,0.7170,1.6211,0.9756,4.8171,1.6463,,,
0.8879,0.7217,1.6406,1.2195,7.4390,2.6220,,,
0.9958,0.7888,1.6770,1.7683,6.6463,1.4024,,,
1.0637,0.7859,1.6572,1.6463,13.1707,2.5000,,,
1.0588,0.7759,1.6589,-1.8902,22.9268,1.7073,,,
1.0066,0.7285,1.6440,-5.9756,24.9390,1.2805,,,
0.8899,0.6895,1.5381,-4.9390,19.2073,1.0976,,,
0.8840,0.6812,1.6040,-4.5122,11.4634,1.7683,,,
0.9392,0.6372,1.6126,-6.4329,11.1280,-2.5915,,,
0.8440,0.5442,1.5493,-6.0976,14.8780,-4.3293,-30.5625,-113.0625,-2.6875
0.8960,0.5222,1.7383,-4.3902,14.6341,-5.7317,,,
0.9719,0.5168,1.7017,-1.4634,12.4390,-6.4024,,,
0.8841,0.5291,1.7385,-0.2744,12.3780,-2.7134,,,
0.5823,0.5659,1.7000,3.7195,5.4268,-0.2439,,,
0.6580,0.6116,1.5518,3.8415,-9.5732,3.5976,,,
0.8169,0.6379,1.5640,-0.3659,-15.4878,4.2073,,,
0.9377,0.6382,1.5957,-1.4024,-11.7683,4.2073,,,
0.9810,0.5911,1.6140,,,,,,
0.9553,0.6128,1.6479,-0.6098,-5.1829,3.8415,,,
,,,0.2439,-2.5000,3.7805,-29.5000,-112.3750,-2.3125
0.9258,0.6802,1.6641,0.0610,-2.6220,2.5610,,,
0.8723,0.7148,1.6511,0.2439,-2.7439,2.5000,,,
0.8589,0.6815,1.6850,0.9756,-3.4756,1.7683,,,
0.8879,0.6301,1.6858,3.0488,-5.3049,0.6707,,,
0.9192,0.6375,1.6846,1.3415,-6.2805,0.7927,,,
0.8691,0.6067,1.6554,1.6463,-4.2073,1.4024,,,
0.8694,0.6123,1.6558,2.6220,-4.2683,1.7683,,,
0.9116,0.6194,1.6853,3.2927,-4.8171,1.8293,-31.3125,-112.3750,-3.0625
0.9258,0.6677,1.6274,0.1829,-7.1951,0.6098,,,
0.8960,0.6704,1.5649,0.4268,-9.9390,0.6707,,,
0.9959,0.6442,1.5987,2.3780,-8.1098,0.0610,,,
1.1240,0.6646,1.6545,0.9756,1.4634,-2.6220,,,
1.0337,0.6418,1.6504,0.8537,10.6707,-2.7439,,,
0.9067,0.6203,1.6385,-0.1829,20.9147,-1.8598,,,
0.9250,0.6030,1.6580,-0.2439,20.1220,-2.7439,,,
,,,,,,-30.9375,-113.8125,-2.6875
0.9580,0.6373,1.6479,-0.3659,19.0244,-4.3902,,,
1.0564,0.7146,1.6797,-1.2195,21.9512,-4.8780,,,
0.9744,0.7287,1.6660,-5.1829,34.6037,-5.1220,,,
0.8337,0.7085,1.6775,-6.3415,40.7927,-4.8780,,,
0.7920,0.7158,1.7332,-4.8171,37.6829,-3.7195,,,
0.8140,0.7383,1.7532,-3.1098,36.2195,-3.3537,,,
,,,-2.9268,36.5244,-4.0244,,,
0.8665,0.7395,1.7336,-3.3537,37.0732,-3.5976,,,
0.8767,0.7158,1.7322,-4.7561,36.4024,-3.1707,-29.1250,-113.8125,-2.6875
0.8286,0.6877,1.7063,-3.7805,35.5488,-2.8049,,,
0.7896,0.6659,1.7658,-2.8049,36.9207,-2.3171,,,
0.7898,0.7124,1.7708,-3.4756,41.7073,-3.0488,,,
0.7744,0.7158,1.7500,-4.6951,43.2317,-2.0732,,,
0.6894,0.6996,1.7685,-3.5061,39.9695,-1.8598,,,
0.6370,0.6987,1.7358,-3.7195,30.5488,0.0610,,,
0.6038,0.6855,1.7598,-3.1098,22.8659,1.0976,,,
0.5671,0.6579,1.7767,-2.5610,15.3049,2.3780,,,
,,,-0.3659,12.3171,3.7195,-26.1875,-113.8125,-3.4375
0.6094,0.6597,1.8391,,,,,,
0.7365,0.6555,1.7912,1.8293,13.3537,3.4756,,,
0.7019,0.6643,1.7629,2.3780,16.7683,2.0122,,,
0.7135,0.6610,1.7559,0.0915,20.1829,0.2744,,,
0.7302,0.6638,1.7244,-2.0122,20.0610,-0.7317,,,
0.7051,0.6587,1.8113,-1.8902,20.8537,-1.8902,,,
0.6473,0.6406,1.8221,-2.8049,26.0975,-3.3537,,,
,,,-2.5000,27.3780,-4.2683,-26.5625,-115.2500,-3.4375
0.5486,0.6013,1.8457,,,,,,
0.5046,0.6150,1.8120,-2.1341,24.2683,-2.7439,,,
0.4866,0.6328,1.7903,-1.5854,19.0854,-2.7439,,,
0.4890,0.6600,1.8016,-0.0610,8.3537,-0.9146,,,
0.4983,0.6626,1.8066,2.0732,-2.9268,0.7317,,,
0.5444,0.6724,1.7800,4.0244,-7.4390,2.1951,,,
0.6146,0.6969,1.7708,4.1159,-9.4207,3.1402,,,
0.6897,0.6885,1.8027,3.3537,-10.7927,2.4390,,,
,,,2.8659,-10.2439,2.0122,-24.3750,-114.1875,-3.4375
0.7087,0.6870,1.7601,2.2561,-8.1098,1.4024,,,
0.6453,0.6699,1.7324,1.0366,-6.1585,1.7683,,,
0.5842,0.6477,1.7617,0.9146,-6.2805,1.4024,,,
0.6221,0.6416,1.7804,1.3415,-7.9573,0.8841,,,
0.6743,0.6506,1.8364,1.0976,-6.6463,1.0366,,,
0.6641,0.6523,1.8506,0.4268,-4.6951,0.3659,,,
0.6165,0.6621,1.8313,1.4634,-5.6707,-0.1829,,,
0.5674,0.6968,1.7720,2.0732,-8.5976,-0.6707,,,
,,,1.6463,-10.8537,0.0000,,,
0.6580,0.7419,1.7246,0.4268,-12.8659,0.6707,-25.5000,-114.1875,-2.3125
0.7559,0.7363,1.7212,-1.1585,-10.3659,-0.0610,,,
0.6478,0.6755,1.8004,-2.1951,-5.5488,-1.2805,,,
,,,-2.9878,-5.6098,-0.4268,,,
0.5845,0.6338,1.8304,-0.7317,-9.1768,0.6098,,,
0.6826,0.6052,1.7983,2.3780,-8.6585,-1.4634,,,
0.7466,0.6108,1.8005,2.0732,-4.2683,-1.2195,,,
0.7024,0.6339,1.7712,1.9512,0.4573,-1.7073,,,
0.6814,0.6409,1.7302,0.5488,0.0000,-0.3659,,,
,,,,,,-26.2500,-113.8125,-3.0625
0.6723,0.6562,1.7243,0.0915,0.7927,-1.5549,,,
0.7090,0.6511,1.7900,-1.3415,3.9634,-1.2805,,,
0.7507,0.6865,1.8457,-1.7073,8.1098,-1.8293,,,
0.7479,0.7104,1.8065,-2.8963,10.6098,0.2439,,,
0.7466,0.7043,1.8342,-1.4024,14.0854,-0.9146,,,
0.7231,0.7236,1.7883,-2.1341,16.4024,-2.3780,,,
0.5740,0.7000,1.7837,-1.8293,18.2317,-1.0366,,,
0.4807,0.6672,1.7617,-0.6098,13.9634,-0.1220,,,
0.4824,0.6631,1.7288,0.2439,4.4512,2.0732,-25.5000,-114.5625,-2.6875
0.5139,0.6409,1.7339,1.1585,-3.2927,2.5000,,,
0.5935,0.6299,1.7502,,,,,,
0.7097,0.6182,1.7818,1.7988,-6.7683,1.3415,,,
,,,0.9756,-1.9512,0.3049,,,
0.6987,0.6331,1.7412,-0.7317,2.6829,0.3049,,,
0.6262,0.6348,1.7580,-2.1341,5.1220,0.6707,,,
0.6389,0.6111,1.8088,-1.8902,3.6585,-0.5488,,,
0.6450,0.6292,1.8362,0.1829,1.2805,-0.3049,,,
,,,0.4878,0.9146,0.0000,-25.5000,-113.0625,-3.0625
0.6487,0.6565,1.8069,0.7927,0.0610,-0.1220,,,
0.6157,0.6614,1.7866,1.0976,-1.5854,0.1220,,,
0.5750,0.6545,1.7893,1.5854,-3.1707,0.6707,,,
0.5854,0.6599,1.8040,1.8902,-2.1951,0.6707,,,
0.6637,0.6704,1.7635,1.1585,-1.3415,1.2195,,,
0.6282,0.6685,1.7708,0.9756,-0.7317,0.9756,,,
0.6062,0.6714,1.7710,0.7927,-1.8902,0.5488,,,
0.6206,0.6709,1.7842,1.0976,-4.7256,1.2805,,,
0.6433,0.6787,1.7893,0.7927,-4.2683,0.4878,,,
0.6318,0.6780,1.7886,0.5488,-3.4756,0.6707,-24.7500,-114.5625,-1.5000
0.6382,0.6772,1.7986,1.0366,-5.6098,0.1220,,,
0.6519,0.6763,1.8035,,,,,,
0.6399,0.6782,1.8093,1.1585,-8.5671,-0.3049,,,
0.5952,0.6804,1.8159,0.9146,-11.6463,-0.6098,,,
0.5662,0.6831,1.7913,2.5000,-15.6098,-0.1220,,,
0.6201,0.7470,1.6957,1.7073,-26.8293,1.7988,,,
0.7649,0.7339,1.8335,2.8659,-26.4024,0.6098,,,
0.8384,0.6670,1.8206,,,,,,
,,,3.9634,-17.8659,1.0976,-25.8750,-114.9375,-1.5000
0.7903,0.6548,1.7500,2.1951,-11.2195,2.6829,,,
0.6040,0.6570,1.7949,,,,,,
0.5264,0.6187,1.7913,1.4024,-9.7561,2.0732,,,
0.5820,0.5864,1.8053,3.2622,-20.4878,1.2500,,,
0.6458,0.5928,1.8171,4.5732,-27.8659,0.9146,,,
,,,5.4268,-30.4878,0.6098,,,
0.7119,0.6467,1.7620,3.8415,-31.6463,0.1220,,,
0.7197,0.6736,1.7407,,,,,,
0.6899,0.6931,1.6855,2.8659,-32.5610,0.7927,,,
0.7415,0.7195,1.6914,1.8293,-36.8293,2.6829,,,
,,,0.1220,-44.0244,2.9878,,,
0.8584,0.7263,1.6904,0.3659,-49.8781,1.5854,,,
,,,,,,-27.3125,-114.8750,-3.0625
0.8507,0.6968,1.7664,0.6098,-46.8902,1.8293,,,
0.8095,0.6840,1.7670,1.5854,-31.2195,3.4146,,,
0.7673,0.6914,1.7361,3.2927,-23.7195,4.9390,,,
0.7843,0.6913,1.7007,3.6280,-31.2805,5.7012,,,
0.9214,0.7061,1.6807,5.3049,-41.2805,4.9390,,,
,,,5.6098,-43.4756,3.8415,-30.5625,-113.0625,-1.5000
1.0106,0.7328,1.6725,4.8780,-40.4268,3.2317,,,
,,,3.7195,-32.8049,2.4390,,,
0.9489,0.7119,1.6591,3.0793,-21.3109,2.5915,,,
0.9312,0.6868,1.6426,3.9024,-14.7561,2.3780,,,
0.9412,0.6685,1.6829,4.5122,-9.3293,1.4024,,,
0.9055,0.6769,1.6557,4.7561,-9.9695,2.5000,,,
0.9143,0.6980,1.5466,,,,,,
1.1270,0.7205,1.5698,4.8171,-12.0122,3.2317,,,
1.3918,0.7273,1.5911,2.6829,-4.5732,1.9512,-30.5625,-114.8750,-1.5000
1.3533,0.6968,1.6978,-2.6524,21.3415,-4.0244,,,
1.0391,0.6836,1.7092,-7.0732,45.8537,-4.0854,,,
0.7800,0.6750,1.6606,-5.5488,41.4024,-4.0854,,,
0.6172,0.6204,1.6008,-2.8049,23.3537,-0.6707,,,
0.6201,0.5862,1.5994,1.3415,8.6585,-0.1829,,,
0.8261,0.5827,1.6242,5.0000,4.9695,0.4268,,,
1.0342,0.5813,1.5986,6.0976,15.2439,-0.3049,,,
1.0579,0.5996,1.5520,5.4878,26.0976,-1.4634,,,
,,,,,,-29.8750,-114.1875,-3.4375
0.9944,0.6108,1.5100,2.6829,32.3171,-1.6463,,,
0.8735,0.6333,1.5354,-0.3659,28.0488,-1.7683,,,
0.7668,0.6387,1.6309,0.1220,19.6341,-3.9634,,,
0.7559,0.6296,1.6565,0.7317,10.4268,-4.5122,,,
0.7744,0.6382,1.6902,0.5488,6.1585,-2.6829,,,
0.8030,0.6406,1.7678,0.4878,5.2439,-1.8902,,,
0.8657,0.6340,1.8145,1.0366,3.5366,-3.4146,,,
0.8711,0.6321,1.7051,0.7317,5.0610,-4.5122,,,
0.8047,0.6628,1.7085,-0.9146,11.3415,-2.9268,,,
0.7412,0.7163,1.6370,-2.8049,6.2195,0.3049,-28.7500,-114.5625,-2.3125
,,,-2.5000,-2.9878,0.3659,,,
0.8583,0.7376,1.7157,-2.5305,-6.3110,-0.3963,,,
0.8557,0.7434,1.7080,-3.6585,-1.5244,-1.2805,,,
0.8538,0.7249,1.7239,-4.0244,-0.6098,-1.2805,,,
0.8508,0.6974,1.6945,-3.0793,5.1829,-1.4024,,,
0.8865,0.6929,1.6826,-2.5610,6.2195,-2.0732,,,
0.8226,0.6804,1.7191,-2.3780,7.1341,-2.0732,-28.3750,-114.5625,-3.0625
0.8076,0.6670,1.7341,-2.1341,4.9390,-2.6220,,,
0.7769,0.6870,1.7037,-1.5244,2.0122,-1.6768,,,
0.7380,0.6990,1.6978,-0.7317,-2.1951,0.4268,,,
0.7957,0.7078,1.7261,-0.3049,-5.1220,0.7317,,,
0.8497,0.7038,1.7246,0.8841,-3.8110,-0.6707,,,
,,,,,,-29.1250,-113.8125,-1.8750
0.8002,0.7058,1.7199,0.4878,1.9207,-0.0610,,,
0.8313,0.7083,1.7170,0.2134,1.7378,-0.6402,,,
0.8877,0.7251,1.6841,-3.7805,3.1098,0.9756,,,
0.9590,0.7666,1.6709,,,,,,
0.8630,0.7427,1.6042,-4.6951,6.1280,-1.3415,,,
0.7971,0.7095,1.7048,-4.9390,7.1951,-3.4146,,,
0.8413,0.6721,1.7122,-3.7805,4.2683,-2.9268,,,
0.7899,0.6376,1.7047,-3.9634,8.4756,-2.1341,-28.0625,-112.7500,-3.0625
0.7781,0.6211,1.6990,-6.0976,10.6098,0.0000,,,
,,,-5.9756,12.0732,-0.6707,,,
0.7530,0.6139,1.7706,-3.7805,7.2866,0.1525,,,
0.7844,0.6316,1.8115,0.1220,0.6707,0.7317,,,
0.8206,0.6792,1.7559,1.5854,-2.4390,0.7317,,,
0.7466,0.7100,1.7239,2.1646,-0.5793,2.5305,,,
0.7148,0.7002,1.6919,2.7439,-0.9146,4.3902,,,
0.7830,0.6980,1.7815,,,,-28.3750,-113.4375,-2.6875
0.7793,0.7136,1.6677,4.2073,-4.0244,3.3232,,,
0.7815,0.7329,1.7271,,,,,,
,,,3.0488,-2.9268,5.6098,,,
0.9188,0.7105,1.7294,4.6951,-7.1037,1.8598,,,
0.8906,0.7043,1.6277,3.9024,-5.7927,-0.6707,,,
0.7964,0.6597,1.6538,2.4390,-0.4878,0.1829,,,
0.8481,0.6443,1.6787,1.4634,-0.6707,-0.9146,,,
0.8804,0.6226,1.7012,1.2805,-0.8537,-2.3171,,,
0.7823,0.5859,1.7365,1.4634,1.4634,-1.3110,,,
,,,,,,-28.3750,-113.8125,-2.6875
0.7246,0.6067,1.6338,0.9756,-0.0610,-0.7317,,,
0.6995,0.5941,1.7184,2.8963,-5.7622,1.4634,,,
0.9155,0.5962,1.6897,5.6707,-7.1951,-0.1220,,,
0.9050,0.5945,1.6243,3.1098,4.0854,2.4390,,,
0.8855,0.6406,1.6843,1.4634,8.0488,0.7317,,,
0.9458,0.6885,1.6152,1.2195,4.5732,-2.1951,,,
0.8715,0.6461,1.6116,-1.9207,6.3110,-0.9451,,,
0.8623,0.6680,1.6062,-7.2561,7.2561,-1.9512,,,
0.9009,0.6526,1.6069,-9.2073,8.7805,-3.7195,-29.1250,-113.4375,-3.0625
0.9233,0.6155,1.5806,,,,,,
0.9302,0.5815,1.5271,-10.0000,15.5488,-5.0610,,,
0.9909,0.5332,1.6123,-12.7134,32.9878,-4.6951,,,
0.8765,0.4973,1.7981,-14.2073,54.3902,-9.1463,,,
0.6052,0.5447,1.8804,-14.3902,68.7805,-9.6951,,,
0.5453,0.5844,1.8391,-11.1585,73.5975,-6.4634,,,
0.5352,0.6284,1.8674,-7.9878,66.4634,-2.9268,,,
,,,-6.5854,58.4146,-4.3293,-25.5000,-114.1875,-3.0625
0.7046,0.7057,1.9228,-4.6951,45.4878,-7.8659,,,
,,,-3.5976,37.9268,-10.7927,,,
0.6402,0.8308,1.8552,-4.8476,42.5609,-8.3232,,,
0.3240,0.9221,1.7446,-7.8659,28.1098,0.6098,,,
0.2671,0.9062,1.7803,-4.3293,11.3415,2.5000,,,
0.5356,0.8165,1.9531,0.9756,14.4207,0.3049,,,
0.6953,0.7639,1.8530,0.3049,25.6707,2.0122,,,
0.4990,0.7019,1.8210,2.0732,25.6098,1.4024,,,
,,,,,,-24.0625,-113.4375,-3.4375
0.4285,0.6536,1.7424,2.6220,16.2195,2.3171,,,
0.5361,0.6282,1.7555,2.0122,4.6646,2.4695,,,
0.6216,0.6128,1.8210,0.7317,1.6463,-0.2439,,,
0.6123,0.5891,1.8193,-0.9756,4.4512,-1.0976,,,
0.5546,0.5991,1.7958,-2.5610,5.4268,0.2135,,,
0.4641,0.6062,1.8347,-0.9756,0.4878,0.6098,,,
0.4929,0.6145,1.8318,-0.1829,-1.9512,1.4024,,,
0.5535,0.6199,1.8416,0.6098,-1.3415,2.0732,-23.6875,-113.8125,-3.0625
0.5276,0.6128,1.8689,1.2195,-0.0610,1.5244,,,
0.4635,0.6104,1.8398,2.0732,-1.9512,2.3780,,,
0.4785,0.6438,1.8184,2.6829,-6.3415,3.0488,,,
,,,2.5610,-7.9878,2.9268,,,
0.5850,0.6625,1.7975,0.9451,-5.0915,2.2256,,,
0.6257,0.6299,1.9329,2.0122,-2.8049,-0.1220,,,
0.6201,0.6497,1.8035,1.2805,-2.3171,0.4878,,,
0.5149,0.6833,1.7744,-0.3049,1.8293,1.5244,,,
0.5415,0.6768,1.7839,,,,,,
0.6147,0.6602,1.7793,-0.1220,-0.8537,-1.3415,,,
,,,-0.4878,-2.1341,-1.2805,-24.0625,-113.8125,-2.3125
0.6042,0.6577,1.8037,,,,,,
0.5481,0.6736,1.8005,-1.1585,-0.8537,-0.4268,,,
0.4775,0.6653,1.8044,-1.5244,-3.2012,1.4329,,,
0.4456,0.6396,1.8164,,,,,,
0.4868,0.6333,1.8501,0.9146,-12.0122,2.5610,,,
0.5691,0.6426,1.8518,2.8049,-16.2805,2.0732,,,
0.6646,0.6543,1.8704,3.9024,-14.3902,3.1098,,,
0.6763,0.6724,1.7834,3.6585,-12.8659,2.1341,,,
0.5942,0.6675,1.7593,2.9878,-11.2195,2.0732,,,
0.5801,0.6501,1.7644,1.6463,-7.6829,2.6829,,,
,,,1.2195,-4.9390,2.3171,-24.3750,-113.4375,-3.4375
0.6223,0.6396,1.7937,0.3659,-2.1341,1.7683,,,
0.6589,0.6484,1.7979,-0.6098,-0.0610,0.9756,,,
0.6047,0.6517,1.8112,-1.7378,1.6159,0.4878,,,
,,,-0.7317,-2.3780,-0.9146,,,
0.5596,0.6436,1.8091,,,,,,
0.5540,0.6313,1.8490,0.0915,-3.0488,0.4573,,,
0.5686,0.6406,1.7974,0.2439,-0.4573,0.7317,,,
,,,,,,-24.7500,-114.1875,-4.2500
0.5762,0.6423,1.7959,1.8293,-5.0000,0.6707,,,
0.6030,0.6511,1.7915,1.7073,-5.3659,0.3659,,,
0.6420,0.6597,1.8064,0.9756,-2.2866,0.4573,,,
0.6392,0.6570,1.8125,0.8537,1.1585,0.1220,,,
0.5763,0.6727,1.7725,-0.0305,0.5488,-0.1525,,,
0.5789,0.6521,1.7952,0.7927,-4.8171,0.3659,,,
0.5969,0.6355,1.8181,1.5854,-6.3415,0.1829,-24.7500,-112.7500,-3.4375
0.5898,0.6458,1.8237,1.8293,-5.7317,0.6098,,,
0.6016,0.6557,1.7984,,,,,,
0.5998,0.6318,1.8157,1.3567,-1.9970,1.0061,,,
0.5283,0.6350,1.7969,1.5244,-2.6220,2.0732,,,
0.5627,0.6375,1.8340,2.7439,-6.2805,1.0976,,,
0.6479,0.6524,1.7893,3.2317,-7.3780,1.2805,,,
0.6292,0.6709,1.7637,2.3171,-5.3049,1.4634,,,
0.5991,0.6636,1.7500,1.8902,-4.4512,1.0366,,,
0.5896,0.6521,1.7761,1.6463,-4.6341,0.9146,-25.1250,-114.5625,-2.6875
0.6326,0.6562,1.8035,1.1585,-4.6951,1.3415,,,
,,,0.6707,-2.8659,0.7927,,,
0.6774,0.6635,1.8112,-0.1830,0.5183,1.0976,,,
0.5601,0.6683,1.8024,0.3659,-1.2195,0.9451,,,
0.6118,0.6599,1.8865,3.8415,-7.4390,-1.2195,,,
0.7200,0.6748,1.8108,2.3780,-5.1829,0.4268,,,
0.6354,0.6843,1.7618,0.7317,1.8293,0.3048,,,
,,,,,,-25.5000,-114.1875,-3.0625
0.5344,0.6396,1.7642,-0.2439,0.7927,-0.1829,,,
0.5522,0.6226,1.7864,-0.6098,-0.0610,0.0000,,,
0.6499,0.6406,1.8142,-0.1525,2.1951,0.0610,,,
0.6287,0.6638,1.7793,0.3659,0.5488,-0.1220,,,
0.5796,0.6670,1.8096,1.0366,-3.0488,-0.6707,,,
0.5930,0.6604,1.8210,,,,,,
,,,1.3415,-4.9390,-1.2805,,,
0.6384,0.6562,1.8223,0.9756,-2.4390,-1.6463,,,
0.6724,0.6621,1.7784,-0.4878,3.4756,-1.8598,-24.0625,-114.1875,-3.0625
0.6292,0.6284,1.8271,-0.3659,5.0610,-2.5000,,,
0.6018,0.6233,1.7979,0.6707,2.8049,-1.5854,,,
0.5738,0.6724,1.7507,0.6098,-3.1707,0.6707,,,
0.6631,0.6665,1.8169,1.0976,-5.1220,0.4878,,,
0.6768,0.6807,1.8279,0.8841,-1.5244,1.0976,,,
0.6091,0.6843,1.7964,-0.0610,4.8171,1.0366,,,
0.5662,0.6692,1.7849,-0.1220,5.6707,0.8537,,,
0.5665,0.6470,1.7770,0.5183,-2.5305,1.1585,-24.0625,-114.5625,-3.0625
0.5928,0.6501,1.8042,1.2195,-8.1707,0.3659,,,
0.5876,0.6636,1.8298,2.1341,-11.6463,0.1220,,,
0.5299,0.6696,1.8392,4.4207,-14.7561,0.1220,,,
0.6074,0.6958,1.8035,,,,,,
,,,4.5122,-21.5244,-1.4024,,,
0.6103,0.6979,1.7943,2.7439,-25.7317,-2.6524,,,
,,,,,,-26.2500,-114.1875,-3.0625
0.5364,0.6653,1.9028,3.2317,-26.7683,-1.1585,,,
0.6240,0.7118,1.7755,6.0671,-32.2256,0.1220,,,
0.7205,0.7708,1.7368,,,,,,
0.7227,0.7483,1.7439,2.4695,-30.9147,0.6098,,,
0.6511,0.7236,1.7803,0.8537,-33.3537,3.9024,,,
0.5986,0.6865,1.8174,2.3780,-39.2073,4.2683,,,
0.6169,0.6648,1.8350,4.5732,-46.0366,2.5610,,,
0.6077,0.6550,1.8149,,,,,,
0.6151,0.6888,1.7842,7.0122,-52.3476,5.0305,,,
,,,10.7927,-58.9024,10.1829,-26.9375,-113.4375,-3.0625
0.7808,0.7537,1.7178,,,,,,
0.9389,0.7410,1.6038,10.7927,-65.7927,10.9756,,,
,,,9.7561,-59.4512,8.9634,,,
0.9795,0.6612,1.6972,6.4329,-24.4513,7.5610,,,
0.9087,0.6467,1.7710,5.0610,-12.0732,6.0976,,,
0.9324,0.6438,1.6755,4.9390,-10.6707,5.4878,,,
0.8918,0.6548,1.6133,3.4146,-12.2561,6.1890,,,
,,,,,,-29.5000,-114.9375,-1.8750
0.9395,0.6575,1.5374,4.9390,-18.9024,3.3537,,,
1.0405,0.6733,1.4707,3.4756,-14.6341,0.2439,,,
1.1965,0.7039,1.6177,-1.3415,-4.7561,-2.0122,,,
1.1313,0.6406,1.7664,-3.1707,17.5000,-4.2683,,,
0.8639,0.5835,1.6382,-2.5915,29.8171,-2.0427,,,
0.7632,0.5759,1.7546,1.0366,23.4756,-3.0488,,,
0.7573,0.5662,1.6904,3.7195,17.8049,-1.8902,,,
0.7319,0.6091,1.6221,2.9268,12.2561,0.0610,,,
0.7532,0.6541,1.5513,2.6829,3.4146,1.0976,,,
,,,,,,-29.8750,-114.1875,-1.8750
0.8223,0.6653,1.5947,2.6220,-2.3780,0.1829,,,
0.8857,0.6655,1.6252,2.2561,-0.0610,-0.6098,,,
0.9224,0.6707,1.6360,0.4268,5.1829,0.1220,,,
0.9376,0.7090,1.6015,-1.8293,7.7439,-0.3659,,,
0.8730,0.7190,1.6350,,,,,,
0.8455,0.7102,1.6768,-3.3537,8.9024,-0.6707,,,
0.8420,0.7070,1.6816,-2.3780,6.9817,-0.3963,,,
0.8364,0.6968,1.6763,-1.2195,3.2927,-0.4268,,,
,,,-1.1585,2.3171,-1.1585,-29.8750,-114.9375,-3.0625
0.7627,0.6682,1.6721,-1.5244,4.8780,-1.3415,,,
0.7988,0.6172,1.6987,-2.0732,6.8293,-0.3049,,,
0.8821,0.6301,1.7292,-1.3720,3.4146,-1.9817,,,
0.8879,0.6724,1.7412,-1.9512,5.9146,-2.3780,,,
0.8823,0.6711,1.7986,-2.8659,10.0000,-1.8902,,,
0.8325,0.6983,1.7127,-0.8232,8.5671,-3.2317,,,
0.7205,0.7217,1.6631,-1.0366,4.2683,-2.5610,,,
0.7239,0.7078,1.6792,-1.2195,1.2195,-1.4024,,,
,,,-0.3659,-2.4390,-0.8537,-29.1250,-114.1875,-2.3125
0.7598,0.7021,1.7014,,,,,,
0.7856,0.7185,1.6775,0.9756,-3.7805,-1.7683,,,
0.8457,0.7339,1.7092,0.0915,-5.5488,-1.1280,,,
0.8647,0.7241,1.7358,0.5488,-3.3537,-1.4634,,,
0.8518,0.7222,1.7363,1.0976,-0.0610,-1.0976,,,
0.8341,0.7074,1.7142,1.0671,2.3476,-0.9451,,,
0.7957,0.7004,1.7207,1.6463,-0.2439,-0.1829,,,
0.7922,0.7117,1.7163,3.0488,-4.8780,-0.7317,,,
0.8088,0.7051,1.7102,3.2317,-7.1951,-0.1220,-28.7500,-113.8125,-1.1250
0.8110,0.6909,1.7078,,,,,,
0.8281,0.6890,1.7234,3.5366,-6.2195,0.6098,,,
0.8611,0.7012,1.7068,3.9634,-3.2317,0.5488,,,
,,,2.8659,-0.7317,-0.9756,,,
0.8870,0.7302,1.6799,-0.4878,-0.0610,-0.9756,,,
0.8799,0.7417,1.6284,-0.8537,-2.0122,-0.3049,,,
0.8281,0.7212,1.5684,,,,,,
0.8113,0.6851,1.7619,-0.5793,-1.8293,1.4024,,,
0.9009,0.6877,1.7747,1.8293,-2.3780,-0.0610,,,
0.8367,0.7007,1.6980,2.3780,-1.0366,-0.7927,,,
,,,1.3415,3.5976,0.3659,,,
,,,,,,-29.1250,-114.1875,-2.3125
0.7578,0.6995,1.6672,-0.3659,4.9390,1.3415,,,
0.7491,0.6749,1.6374,-0.6707,0.5488,0.3049,,,
,,,-0.1220,-4.4512,0.1220,,,
0.8064,0.6558,1.6877,0.3659,-6.5854,0.7927,,,
0.8790,0.6924,1.7102,-0.2135,-3.9634,0.6098,,,
0.8728,0.7043,1.7202,-0.5488,-0.3049,0.6707,,,
0.8593,0.7137,1.7229,0.6402,-1.7683,-0.3963,,,
0.8513,0.7275,1.6843,0.9146,-1.8293,-1.2195,,,
0.8301,0.7251,1.6543,0.3049,-1.0976,-0.4268,-29.8750,-112.3750,-2.3125
0.8225,0.7166,1.6748,-0.1829,-0.8537,-0.5488,,,
0.8428,0.7097,1.6917,0.2439,-0.7927,-0.7927,,,
0.8342,0.7076,1.6679,0.0610,-0.3659,-0.6098,,,
0.8230,0.6995,1.6804,-0.3049,0.3049,0.1220,,,
,,,-0.1220,-0.8537,0.3659,,,
0.8402,0.6907,1.6888,0.8232,-2.7134,0.5488,,,
0.8484,0.6824,1.7048,0.9756,-2.0732,0.7927,,,
0.8599,0.6841,1.6980,1.0976,-1.5244,0.7927,,,
0.8601,0.6821,1.6970,1.4634,-1.9512,0.7927,-29.1250,-113.4375,-1.5000
0.8303,0.6831,1.6973,1.9512,-2.1951,0.9756,,,
0.8096,0.6877,1.6863,2.2561,-3.4756,1.3415,,,
0.8336,0.6903,1.6788,2.5000,-3.9024,1.7073,,,
0.8525,0.7051,1.6211,1.2805,-1.7073,2.6220,,,
0.8560,0.7004,1.6765,0.6707,-0.1220,3.0488,,,
0.9060,0.6865,1.7546,1.6463,-1.0976,0.6707,,,
0.9021,0.6975,1.7075,1.8902,0.4268,-0.2439,,,
0.8416,0.7173,1.6782,0.4268,3.9024,0.7927,,,
0.8491,0.7209,1.6560,-0.5488,3.0488,1.0366,-30.2500,-113.8125,-2.3125
0.8374,0.7083,1.6482,0.0610,1.4024,-0.1220,,,
0.7949,0.6990,1.6626,0.3049,0.7927,0.0000,,,
0.8081,0.7061,1.6602,-0.2439,-0.2439,0.6098,,,
0.8342,0.7148,1.6716,-0.6098,0.1220,0.7317,,,
0.8503,0.7039,1.7085,-0.5488,1.7073,0.7927,,,
0.8491,0.6992,1.7202,-0.8537,1.8902,1.0366,,,
0.8352,0.6987,1.7219,-0.1220,0.3659,0.6098,,,
0.8155,0.6954,1.6941,0.8841,-3.3841,0.4268,,,
0.8167,0.7158,1.6423,0.1220,-4.5732,0.8537,,,
0.8401,0.7031,1.6404,-0.0610,-2.6220,0.9756,-29.1250,-114.5625,-2.3125
0.8899,0.6782,1.6831,,,,,,
0.8555,0.6810,1.6826,-0.9451,1.4024,0.9756,,,
0.8416,0.7004,1.7507,-0.4268,4.5732,1.2805,,,
0.9036,0.7014,1.7329,-0.8537,1.8293,0.3049,,,
0.8502,0.7096,1.6807,1.5549,-2.8354,-1.4024,,,
0.7949,0.7219,1.6423,1.8293,-0.4878,0.3659,,,
0.8079,0.6956,1.6309,-0.2135,0.6402,0.9146,,,
,,,,,,-30.2500,-115.2500,-2.3125
0.8232,0.6775,1.6611,-0.9146,1.0976,0.9756,,,
0.8506,0.6802,1.7061,-0.8537,1.4024,0.8537,,,
0.8669,0.6963,1.7087,-0.6098,1.0976,0.4878,,,
0.8477,0.7029,1.6941,-0.4268,0.3659,-0.2439,,,
0.8405,0.6842,1.6805,1.2805,-1.7683,0.1220,,,
0.8870,0.6868,1.6931,1.4634,-3.4756,-0.0610,,,
0.8765,0.7065,1.6790,1.8293,-3.2317,-0.8537,,,
0.8387,0.7135,1.6827,0.8232,1.5854,0.0914,,,
,,,0.2439,1.7073,0.2439,-28.3750,-115.6250,-2.3125
0.8001,0.7013,1.6626,1.2195,0.2439,0.3659,,,
0.8176,0.7056,1.6892,0.9756,-1.3415,0.4878,,,
0.8804,0.7021,1.6917,0.6098,-2.0732,1.0976,,,
0.8949,0.6955,1.7271,1.9207,-2.7134,0.4268,,,
0.8411,0.6992,1.6946,2.4390,0.9756,0.3049,,,
0.7803,0.6795,1.6527,0.3963,3.8110,0.9756,,,
0.7900,0.6719,1.6746,0.6098,1.2805,1.1585,,,
0.8550,0.6951,1.6694,0.5488,-0.8537,0.9756,,,
0.8804,0.7178,1.6663,0.3659,-1.7683,0.0000,-29.1250,-114.5625,-1.5000
0.8879,0.7180,1.7112,-0.4878,-0.7927,0.3659,,,
0.8789,0.7136,1.6848,-0.8537,0.2439,-0.0610,,,
0.8411,0.7121,1.6966,0.2744,0.3049,-1.0671,,,
0.8508,0.7080,1.6868,-0.1829,-0.3049,-0.8537,,,
0.8416,0.7054,1.6707,0.0915,-0.1829,-0.5793,,,
0.8369,0.6973,1.6846,0.0000,1.5854,-0.1829,,,
0.8428,0.6853,1.6853,-0.3659,2.8659,-0.5488,-29.8750,-116.0000,-1.5000
0.8406,0.6899,1.6453,,,,,,
0.8081,0.6882,1.6948,-0.9146,3.4756,-0.4268,,,
0.8633,0.6904,1.7288,-0.5183,3.1402,-0.9451,,,
0.8699,0.6980,1.7029,0.1829,-0.1220,-1.9512,,,
0.8337,0.7075,1.6785,,,,,,
0.8427,0.7052,1.6751,0.5488,2.1341,-1.3415,,,
0.8303,0.6855,1.6897,-0.4268,5.0000,-1.9512,,,
0.8476,0.6810,1.7305,-0.5487,6.8902,-2.7134,,,
,,,-0.6098,8.4756,-5.3659,-29.1250,-114.1875,-0.7500
0.8503,0.6829,1.7446,,,,,,
0.8389,0.7085,1.7419,-0.6402,14.6037,-5.1524,,,
0.8171,0.7297,1.6768,-0.5488,17.5610,-3.0488,,,
0.8186,0.7202,1.5942,-0.1829,15.0000,-1.1585,,,
0.8606,0.7161,1.6333,,,,,,
0.8477,0.7271,1.6858,0.0610,12.7439,-0.9146,,,
,,,0.4878,11.7073,-2.9878,,,
0.7859,0.7297,1.6946,0.0000,10.9146,-1.9512,,,
0.7275,0.7124,1.7146,-0.1220,9.6951,-0.1829,,,
0.7262,0.7070,1.6859,0.6098,4.2683,-0.4878,,,
,,,,,,-28.3750,-114.1875,-1.8750
0.7573,0.7006,1.6646,0.0305,-0.0610,0.6098,,,
0.7991,0.6777,1.7375,,,,,,
0.7825,0.6921,1.7368,0.2439,-2.3780,1.2195,,,
0.7605,0.7075,1.7009,0.8232,-5.3659,1.5854,,,
0.7659,0.6963,1.7021,1.3415,-6.8293,2.1951,,,
0.7888,0.6865,1.7180,1.7073,-7.4390,1.8902,,,
0.8018,0.6838,1.7175,2.1341,-6.5244,2.2561,,,
0.8010,0.6875,1.6992,2.0122,-5.4268,2.5610,,,
,,,,,,-26.9375,-114.1875,-3.8125
0.8101,0.6990,1.6899,1.8293,-6.9207,2.0732,,,
0.8286,0.7161,1.7160,1.9207,-5.8537,1.1280,,,
0.8389,0.7314,1.7024,0.6707,-1.7073,1.4634,,,
0.8221,0.7225,1.6789,-0.2440,0.0000,0.9756,,,
0.8171,0.7112,1.7100,-0.1220,-0.7317,0.4268,,,
0.8167,0.7043,1.7373,0.3049,-0.9146,-0.1829,,,
0.8031,0.7092,1.7256,1.1585,-0.7317,0.0610,,,
,,,1.5244,-1.8902,-0.0610,-29.8750,-113.8125,-2.6875
0.7722,0.6990,1.6326,1.2195,-2.3171,0.9756,,,
0.7947,0.6836,1.6969,0.7012,-1.6768,0.4878,,,
0.8015,0.6841,1.7012,0.5488,-1.8902,0.7927,,,
0.8120,0.6975,1.7212,0.6707,-3.2927,1.2195,,,
0.8366,0.7284,1.7034,1.2500,-6.8598,0.7622,,,
0.8389,0.7417,1.6699,1.5854,-9.3293,1.1585,,,
0.8130,0.7344,1.6680,0.8537,-9.2683,1.0976,,,
0.7849,0.7231,1.6892,0.6707,-7.1951,1.2805,-28.7500,-115.6250,-1.1250
0.8188,0.7131,1.6763,0.7927,-4.8780,1.2195,,,
0.8596,0.7019,1.6851,1.0366,-1.4634,1.2195,,,
0.8919,0.7051,1.7229,0.4878,0.9756,0.0610,,,
,,,0.8537,1.0366,-0.9756,,,
0.8503,0.7083,1.6919,0.8537,0.5488,-0.4268,,,
0.7918,0.7039,1.6612,0.7317,-1.7073,0.2134,,,
0.7905,0.7039,1.6213,-0.1220,-2.0732,0.6098,,,
0.7920,0.6970,1.7219,-1.5854,0.6098,1.6463,,,
0.8489,0.7056,1.7158,0.4878,-1.9512,0.0610,-29.5000,-114.1875,-1.8750
0.8638,0.7126,1.7068,0.1829,-0.6707,-0.0610,,,
0.8511,0.7061,1.7258,0.9756,-1.1585,0.6707,,,
0.8368,0.7053,1.7147,2.7134,-2.7744,-0.2439,,,
0.7974,0.6985,1.6526,2.3171,-1.9512,0.4268,,,
0.7959,0.6987,1.6223,0.9146,-2.1341,0.5488,,,
0.8015,0.6982,1.6133,0.4268,-1.5244,0.7317,,,
0.8220,0.7036,1.6616,-0.2439,-0.4878,1.2195,,,
0.8723,0.7180,1.7002,-0.6707,-0.9146,1.0976,-28.7500,-114.5625,-1.5000
0.9075,0.7305,1.7275,-0.2439,-0.4268,0.0610,,,
0.8821,0.7366,1.7224,-0.1829,0.4268,-0.0610,,,
0.8425,0.7339,1.7068,0.0610,0.7927,0.1220,,,
0.8279,0.7280,1.7114,0.7317,-0.7317,-1.3415,,,
0.8313,0.7258,1.6956,0.4878,-1.3415,-2.2561,,,
0.7963,0.7141,1.6383,-0.3354,0.6402,-0.6707,,,
0.7788,0.6877,1.6370,-1.3415,1.1585,0.7927,,,
0.7903,0.6826,1.6348,-1.4024,-0.3049,1.1585,,,
0.8105,0.6855,1.6531,-1.6463,-0.8537,1.9512,,,
0.8613,0.6995,1.7290,,,,-28.7500,-114.1875,-2.6875
,,,-1.0366,-1.7683,1.6463,,,
0.9675,0.7188,1.8060,1.4939,-2.8659,-1.0976,,,
0.9075,0.7388,1.6951,2.6220,1.2805,-0.7317,,,
0.7595,0.7322,1.6113,1.2195,4.5732,0.5488,,,
0.7309,0.6749,1.6294,1.5854,0.2439,0.2744,,,
0.8418,0.6721,1.6897,1.3415,-2.3171,0.2439,,,
0.8723,0.7134,1.6733,0.1220,0.4268,1.0366,,,
0.8369,0.7327,1.6335,-1.2195,2.4390,1.8902,,,
0.7847,0.7266,1.6328,-1.6463,1.3415,2.0122,,,
,,,,,,-29.1250,-114.9375,-1.1250
0.8377,0.7119,1.7223,0.2134,-2.6524,0.2439,,,
0.9536,0.7302,1.8020,1.0976,-0.0610,-1.5854,,,
0.8776,0.7420,1.6985,1.0671,4.2073,-1.1585,,,
0.6965,0.7087,1.6023,1.0366,2.7439,0.1829,,,
0.6956,0.6865,1.6089,0.9146,-1.6463,0.4878,,,
0.7659,0.6853,1.6306,0.2439,-2.9268,0.9146,,,
0.8438,0.7017,1.6606,-0.9756,-1.5244,1.4634,,,
0.8860,0.7158,1.6953,-1.5854,-0.7927,1.7683,-29.5000,-115.2500,-0.7500
0.8918,0.7227,1.7349,-0.6707,-1.2195,1.2195,,,
0.8928,0.7231,1.7534,0.9756,-2.8049,0.1829,,,
0.8677,0.7269,1.7189,1.7378,-1.3110,-0.7927,,,
0.7981,0.7153,1.6604,1.3415,0.7317,-0.7317,,,
0.7842,0.6953,1.6455,0.8537,-0.8537,-0.3659,,,
0.7876,0.6875,1.6343,1.0976,-1.8293,0.0000,,,
0.7961,0.6982,1.6541,-0.0610,-2.3780,0.9146,,,
0.8196,0.7087,1.6604,0.4878,-1.9512,1.6463,,,
0.8650,0.7117,1.7129,0.6707,-1.9512,0.4268,,,
0.8896,0.7212,1.7124,0.4878,-0.9146,0.3049,-29.5000,-114.1875,-0.3750
0.8828,0.7224,1.7053,1.2805,0.1220,-0.1220,,,
0.8640,0.7227,1.6929,0.8537,0.7927,-0.3659,,,
0.8261,0.7169,1.6679,0.6098,0.8537,-0.6098,,,
0.7910,0.7136,1.6584,0.0610,1.1585,0.0000,,,
0.7959,0.7065,1.6631,,,,,,
0.8054,0.7102,1.6714,-0.3659,-0.0304,0.4878,,,
0.8130,0.7146,1.6692,-0.4878,-2.1951,0.5488,,,
0.8301,0.7231,1.6860,-0.5488,-3.1707,0.4878,,,
0.8547,0.7258,1.7039,-0.0610,-2.9878,0.1220,-28.0625,-114.1875,-2.3125
0.8967,0.7234,1.6965,0.1829,-1.5854,-0.3049,,,
0.8875,0.7207,1.6726,-0.3049,0.9756,-0.4268,,,
0.8447,0.7109,1.7019,-0.9756,3.5366,-0.6707,,,
0.8396,0.7053,1.6833,0.3049,2.0122,-1.0976,,,
0.8328,0.7102,1.6748,0.4878,1.7683,-0.4268,,,
0.8214,0.7098,1.6846,0.7622,0.9756,-0.0915,,,
0.8232,0.7166,1.6792,0.5488,-0.7317,-0.4268,,,
0.8114,0.7266,1.6723,-0.4269,-0.2134,-0.1830,,,
,,,,,,-28.7500,-115.6250,-2.3125
0.8432,0.7027,1.6937,-0.2134,1.0366,-0.4878,,,
0.8882,0.6985,1.7021,0.0610,2.1951,-1.3415,,,
0.8594,0.7075,1.6890,-0.2439,2.5610,-0.9146,,,
0.7851,0.7062,1.6523,0.2744,0.9451,0.0000,,,
0.7849,0.6899,1.6982,0.6098,-0.8537,0.1829,,,
0.8652,0.7075,1.7065,0.7927,-1.0366,-1.1585,,,
0.8767,0.7236,1.6309,1.9512,1.0976,-1.2195,,,
0.8455,0.7178,1.7002,-1.0976,5.6098,-0.6707,,,
0.8677,0.7102,1.6980,-0.2439,5.6098,-1.5244,-28.7500,-115.2500,-1.1250
0.8604,0.7119,1.7051,,,,,,
0.8191,0.7205,1.6919,1.3415,4.8780,-3.1098,,,
0.8030,0.7346,1.6985,-0.0610,6.8902,-2.7439,,,
0.8306,0.7285,1.7068,0.0610,6.4634,-5.0610,,,
0.8379,0.7253,1.6960,-0.4878,10.4268,-7.0122,,,
0.8075,0.7503,1.7502,-2.0427,17.8659,-4.8780,,,
0.8677,0.7668,1.7090,-1.7073,15.4878,-2.2561,,,
0.8247,0.7327,1.5823,-1.4634,7.5610,-2.8659,,,
0.7300,0.7236,1.6973,-0.4268,9.7561,-4.6341,-28.3750,-114.5625,-1.5000
0.7295,0.7239,1.6992,0.0610,11.2195,-2.1951,,,
0.7842,0.7159,1.6837,-1.2195,10.5793,-1.6463,,,
0.7466,0.6760,1.6987,-2.1341,13.2317,0.1220,,,
0.8042,0.6865,1.6772,0.3353,5.2439,-2.5915,,,
0.7339,0.6763,1.6880,1.1585,5.3049,-1.7073,,,
0.7904,0.7038,1.6490,0.4878,5.5488,-0.5488,,,
,,,,,,-27.3125,-115.2500,-2.3125
0.7876,0.7202,1.6721,,,,,,
0.7377,0.7060,1.7188,-0.2439,6.4939,0.2439,,,
0.6904,0.7126,1.7341,0.7927,3.1707,2.6220,,,
0.7021,0.7336,1.7432,1.5854,-0.9146,3.4146,,,
0.7368,0.7485,1.7310,2.6220,-5.0610,3.2317,,,
,,,2.5610,-7.3171,2.7439,,,
0.7661,0.7498,1.7061,2.2561,-7.7439,3.2317,,,
0.7942,0.7393,1.7307,1.1280,-5.4268,2.8049,,,
0.7761,0.7290,1.7307,0.7927,-4.2073,2.0122,,,
,,,,,,-28.7500,-114.5625,-2.3125
0.7616,0.7346,1.6859,0.8841,-3.8720,1.4024,,,
0.7935,0.7085,1.7227,-0.1220,-2.4390,1.3415,,,
0.8210,0.7080,1.7339,1.0976,-1.7073,0.3659,,,
0.7617,0.7224,1.7021,1.0976,-0.4268,0.1220,,,
0.7458,0.7258,1.7026,,,,,,
0.7456,0.7219,1.6624,1.0976,-2.8354,0.3963,,,
0.7637,0.7156,1.6860,1.5244,-4.8780,0.5488,,,
0.8210,0.7148,1.7078,1.4024,-4.8171,0.4268,,,
0.8440,0.7241,1.7090,0.6707,-2.5000,0.9146,-28.0625,-115.6250,-2.3125
0.8157,0.7207,1.7153,0.0610,0.4878,0.8537,,,
0.7764,0.7109,1.7227,,,,,,
0.7642,0.7200,1.7073,-0.1829,1.6463,0.3049,,,
0.7593,0.7241,1.6697,0.3659,0.6098,0.2439,,,
0.7674,0.7284,1.7004,0.6098,-2.0427,0.6098,,,
0.7842,0.7363,1.7031,1.5854,-4.2073,0.7317,,,
0.7922,0.7344,1.7161,1.3415,-2.3780,0.7927,,,
0.7878,0.7306,1.6998,0.2439,-0.6707,0.6098,,,
,,,-0.4268,0.3659,0.4878,-28.7500,-114.5625,-2.6875
0.7890,0.7126,1.7037,-0.0610,-0.3049,0.8537,,,
0.7944,0.7268,1.6487,-0.1220,-1.4634,0.5488,,,
0.7559,0.7212,1.7188,-0.0610,-0.8537,0.8537,,,
0.8428,0.7230,1.7596,-0.3049,1.6768,0.1829,,,
,,,0.7317,-0.8537,-2.4390,,,
0.7847,0.7415,1.6528,0.7927,0.0000,-1.2805,,,
0.7260,0.7468,1.6353,0.1525,-3.0183,0.0000,,,
0.7573,0.7122,1.6643,-0.5488,-4.6341,0.1829,,,
,,,,,,-27.6875,-116.0000,-1.5000
0.8110,0.7041,1.6987,-2.0732,-0.7317,0.6098,,,
0.8484,0.7134,1.7593,-3.9024,4.2073,0.0000,,,
0.7916,0.7255,1.7251,-1.9817,1.7683,-0.5183,,,
0.7190,0.7263,1.7104,-0.1829,-6.1585,0.1220,,,
0.7527,0.7197,1.7190,0.5488,-11.2805,0.3659,,,
0.7989,0.7176,1.6871,0.9451,-9.6646,0.6707,,,
0.8093,0.7070,1.7024,0.1220,-3.2317,0.3049,,,
0.8125,0.7053,1.7031,0.1220,-0.3049,-0.6707,-28.7500,-115.2500,-1.8750
0.7957,0.7095,1.6816,-0.3659,0.8537,-0.2439,,,
0.7717,0.7185,1.6401,-1.2195,-0.7927,0.0000,,,
0.7471,0.7036,1.6899,-1.0061,-3.9634,0.9756,,,
0.9207,0.7041,1.8093,2.7439,-10.7927,-2.3171,,,
0.8623,0.7256,1.7811,2.1341,-5.8841,-2.4085,,,
0.6743,0.7627,1.5886,,,,,,
,,,1.5244,-3.9024,-0.9146,,,
0.7014,0.7478,1.5691,0.7317,-7.3171,-2.3780,,,
0.8286,0.7219,1.6064,0.4268,-7.5610,-3.4146,,,
0.9209,0.7148,1.7166,-0.4268,1.4024,-2.8049,,,
0.9465,0.7502,1.7500,,,,-28.7500,-115.6250,-2.3125
0.8625,0.7393,1.7361,-1.5244,8.9634,-3.0488,,,
0.7368,0.7075,1.7559,-1.2805,10.2439,-2.5000,,,
0.6789,0.7211,1.6534,0.8841,2.0427,-1.5854,,,
0.7456,0.7451,1.6736,2.0122,-6.2805,0.0610,,,
,,,2.5610,-11.4024,0.4268,,,
0.8696,0.7144,1.7105,2.8659,-9.0549,1.2195,,,
0.9207,0.7258,1.6777,-0.2439,-4.1463,0.7927,,,
0.8396,0.7595,1.5969,-1.2195,-2.6829,-0.1220,-28.7500,-114.8750,-1.5000
0.8037,0.7432,1.6143,-2.5610,-3.5366,0.3659,,,
0.8652,0.7271,1.6501,-3.8415,-2.5610,1.2805,,,
0.8915,0.7203,1.6751,-2.8659,1.1585,-0.4268,,,
0.8098,0.7212,1.6775,-3.1707,5.2439,-0.5488,,,
0.7510,0.7197,1.6748,-3.4146,6.5244,0.4268,,,
0.7439,0.7185,1.7095,-2.3780,4.1463,0.9146,,,
0.7693,0.7207,1.7063,-1.6463,0.4268,1.4634,,,
0.7686,0.7212,1.7021,-0.7927,-1.4634,1.5244,,,
0.7866,0.7285,1.7644,-0.2439,-0.9756,1.8293,,,
,,,0.3659,-1.2805,2.2561,-28.3750,-115.6250,-1.1250
0.8209,0.7191,1.6989,1.8293,-4.0854,1.3415,,,
0.7637,0.7170,1.7048,1.5244,-5.1220,2.4390,,,
0.7880,0.7220,1.6809,1.9817,-6.8293,2.1037,,,
0.8066,0.7021,1.6912,1.4024,-7.6829,2.0122,,,
0.8521,0.7090,1.6968,1.4024,-6.0976,1.6463,,,
0.8584,0.7250,1.6824,0.0000,-6.1280,1.1280,,,
0.8198,0.7339,1.6562,-0.0610,-6.9512,0.4878,,,
,,,-0.2439,-8.0488,0.8537,-28.3750,-115.2500,-1.5000
0.8123,0.7290,1.6714,,,,,,
0.8152,0.7329,1.7061,0.0305,-8.4451,1.0061,,,
0.8337,0.7395,1.6978,-0.4268,-8.3537,0.5488,,,
0.8313,0.7458,1.6960,-1.0976,-7.3780,0.5488,,,
0.8299,0.7345,1.6839,-0.6402,-7.2256,0.3659,,,
0.8550,0.7378,1.7056,-0.7317,-9.4512,0.6098,,,
0.8230,0.7615,1.7065,0.0000,-10.7317,1.1585,,,
0.8306,0.7637,1.6973,0.3049,-12.0122,3.2317,,,
0.8450,0.7446,1.6960,1.8293,-11.5854,3.5976,,,
,,,,,,-29.5000,-114.9375,-0.7500
0.8210,0.7679,1.6853,1.7683,-12.2561,3.1707,,,
,,,2.9268,-14.6951,3.6585,,,
0.8345,0.7495,1.6775,4.5732,-17.6829,3.7195,,,
0.8783,0.7630,1.6468,3.6585,-19.2987,4.5427,,,
0.9148,0.7542,1.6230,1.7073,-20.1220,4.3902,,,
0.9092,0.7283,1.6289,1.0366,-18.6585,4.2073,,,
0.9125,0.7068,1.6630,1.0976,-15.1220,3.7195,,,
0.9143,0.6882,1.7017,2.6220,-11.7683,2.8659,,,
0.8740,0.6973,1.6853,2.9268,-10.0000,2.9878,,,
,,,3.3537,-9.3293,3.2317,-30.2500,-114.9375,-1.5000
0.8743,0.6992,1.6501,,,,,,
0.8992,0.6968,1.5991,3.3537,-11.6463,2.6220,,,
0.9489,0.6863,1.6187,3.2927,-14.2683,2.1646,,,
1.0183,0.7065,1.6372,1.5854,-13.2317,2.4390,,,
0.9751,0.7192,1.5828,-0.9146,-12.7439,2.1341,,,
1.0196,0.6949,1.6378,-0.6707,-11.2500,2.2866,,,
0.9868,0.6816,1.6799,1.0366,-0.7317,-0.3659,,,
0.8748,0.6646,1.6643,0.7927,11.7683,-0.6707,,,
,,,2.5000,16.8293,-1.8293,-31.3125,-114.5625,-1.8750
0.8694,0.6798,1.6757,3.1707,13.9634,-1.4024,,,
0.9517,0.7051,1.6384,3.8415,11.6463,1.1585,,,
,,,4.0854,7.5000,-0.3659,,,
0.9067,0.7088,1.5394,2.3476,-0.2134,-1.9207,,,
0.9126,0.7039,1.5098,0.4878,-2.1341,-2.1951,,,
0.9170,0.6853,1.5386,-1.0366,0.7927,-0.7317,,,
0.9194,0.6815,1.5087,-2.7439,4.8476,-0.7012,,,
0.9692,0.6802,1.5400,-3.8415,6.4634,-0.1829,,,
,,,,,,-30.5625,-115.2500,-1.5000
0.9446,0.6838,1.6199,-3.9634,8.1098,-0.7927,,,
0.9209,0.6865,1.6677,-3.1098,7.2561,-1.4634,,,
0.9287,0.6921,1.6509,-2.1951,5.6707,-1.7073,,,
0.9426,0.6978,1.6191,-1.8902,7.7439,-1.8293,,,
0.9502,0.6860,1.5750,-1.4024,13.9024,-1.4634,,,
0.9761,0.6850,1.5688,-4.8780,24.4207,-0.7927,,,
0.9353,0.6606,1.5745,-6.8902,27.8049,-2.8049,,,
0.9086,0.6012,1.6801,-5.2134,30.4878,-1.9512,,,
,,,,,,-29.5000,-114.9375,-1.8750
1.0010,0.7013,1.7001,-7.8049,45.8537,-3.4146,,,
0.8599,0.7156,1.6682,-9.7561,55.9756,-5.3049,,,
0.7341,0.7158,1.7004,-10.6098,55.7927,-4.3293,,,
0.7208,0.7075,1.7265,-7.9573,48.7195,-3.4451,,,
0.8262,0.7166,1.8198,-5.3049,44.5732,-3.4146,,,
0.8132,0.7244,1.8303,-3.2927,45.4268,-3.7805,,,
0.7180,0.7917,1.7647,-3.2622,43.9329,-1.9512,,,
0.5933,0.7952,1.7869,-0.4268,37.4390,-2.5000,-26.5625,-114.5625,-3.0625
0.5494,0.7836,1.7382,-0.2744,23.6585,0.0610,,,
0.5520,0.7871,1.6772,-2.4390,10.3659,2.1951,,,
0.5854,0.7468,1.8594,-0.1829,12.9268,2.5610,,,
0.6792,0.7201,1.8043,1.7073,9.6646,4.0549,,,
0.6790,0.7493,1.7913,-1.8293,19.3902,0.3659,,,
0.6335,0.7061,1.7939,0.3049,16.8293,-0.3659,,,
0.6357,0.7024,1.7595,0.2439,15.4268,-0.7317,,,
0.6594,0.7146,1.7456,-0.4268,12.1951,-0.6098,,,
,,,,,,-25.8750,-116.0000,-2.6875
0.6670,0.6812,1.7563,0.7927,7.4390,-1.5854,,,
0.6436,0.6660,1.7451,1.4634,3.9024,-1.3415,,,
0.6221,0.6602,1.7148,2.5000,-0.7927,-1.0366,,,
0.6465,0.7065,1.7241,0.3049,1.7683,-2.1341,,,
0.6729,0.7056,1.7402,2.5000,3.4146,-2.3171,,,
0.6280,0.6677,1.7830,1.2500,2.1341,0.5488,,,
0.6023,0.6790,1.7915,2.1951,-0.9146,0.0610,,,
0.5945,0.7007,1.7603,2.4390,-3.9634,0.8537,,,
0.5872,0.7012,1.7710,2.3780,-6.4634,2.1341,-25.1250,-114.1875,-2.3125
0.6216,0.6985,1.7593,2.8049,-8.7805,1.2195,,,
0.6570,0.6987,1.7629,,,,,,
0.6667,0.7132,1.7668,2.7439,-8.1707,1.2195,,,
0.6416,0.7188,1.7588,3.3537,-7.1951,-0.0610,,,
0.6555,0.7092,1.7317,2.3780,-7.5610,0.6707,,,
0.7099,0.7109,1.7550,2.1951,-8.2927,0.5793,,,
,,,3.4756,-11.2805,-2.3171,,,
0.7065,0.7258,1.7446,2.1951,-11.0366,-3.2927,,,
0.6343,0.7104,1.7231,-2.3171,-13.7195,0.5488,-25.5000,-113.8125,-3.4375
0.5767,0.7083,1.7378,0.7317,-15.4268,-1.6463,,,
0.6277,0.7617,1.7341,-1.4024,-18.1707,-1.7683,,,
0.7815,0.7500,1.7246,-4.6951,-15.9756,-2.3171,,,
0.8357,0.7183,1.7715,-4.4512,-9.3902,-3.1098,,,
0.7706,0.7139,1.8231,-7.1341,-0.2134,-5.8841,,,
0.5750,0.7358,1.8015,-7.4390,0.0000,-6.0366,,,
0.5278,0.7132,1.8107,-5.3963,-4.0854,-10.9756,,,
,,,,,,-26.5625,-113.4375,-2.6875
0.6323,0.7224,1.7744,-3.9329,-7.7744,-16.5243,,,
0.7725,0.7263,1.6877,-7.3780,-7.3780,-17.9268,,,
0.8138,0.6891,1.7357,-9.8171,-2.6829,-19.1463,,,
0.7012,0.6299,1.7896,-9.2683,-1.2195,-20.1220,,,
0.5837,0.6069,1.7979,-7.4390,-5.6707,-19.8171,,,
0.4883,0.6765,1.7738,-6.9817,-18.0183,-19.2378,,,
0.5032,0.7241,1.7166,-5.8537,-32.0732,-19.2073,,,
0.5471,0.7185,1.7422,-4.3902,-38.8415,-18.7195,,,
,,,,,,-25.5000,-114.9375,-2.3125
0.6545,0.6997,1.7896,-5.9146,-47.5000,-23.5366,,,
0.7998,0.6604,1.8000,,,,,,
0.8718,0.6912,1.7810,-3.9634,-51.3415,-22.4390,,,
,,,-2.3171,-47.0732,-17.8659,,,
0.9041,0.7190,1.8015,-4.0244,-37.4390,-16.2195,,,
0.8790,0.7045,1.6899,-5.9451,-26.4634,-14.3293,,,
0.7532,0.6716,1.6467,-5.7927,-16.4634,-10.8537,,,
0.7146,0.6716,1.6648,-7.9268,-11.7073,-8.3537,,,
0.8359,0.6045,1.6711,-11.6463,-3.8415,-7.7439,,,
0.9377,0.5613,1.6912,-11.1585,7.1341,-10.0610,,,
,,,,,,-27.6875,-113.4375,-2.6875
0.9080,0.6689,1.6921,-9.6951,10.1220,-12.5000,,,
0.8840,0.6350,1.7236,-7.9878,10.5488,-6.4024,,,
0.8884,0.4819,1.7095,-7.1341,7.1341,-1.0976,,,
0.8250,0.4927,1.7271,-3.9634,0.0000,-5.3049,,,
0.7002,0.5657,1.7708,-2.5610,-5.1220,-3.0488,,,
0.6555,0.5933,1.6929,,,,,,
0.7108,0.6325,1.6232,-0.9756,-6.4329,1.7073,,,
0.7146,0.6614,1.5952,-1.9512,-0.4268,2.6220,,,
0.7590,0.6829,1.6201,-0.6707,2.8659,3.2317,,,
,,,1.4024,2.9878,4.2683,-25.1250,-114.9375,-3.0625
0.8567,0.6922,1.7604,5.0305,-2.9878,5.9756,,,
0.8740,0.6992,1.8225,7.7439,-8.4146,10.1220,,,
0.8413,0.7023,1.7658,8.1098,-11.6463,12.4390,,,
0.7712,0.7384,1.7240,9.3293,-14.0854,12.2561,,,
0.7317,0.7690,1.6619,8.3537,-17.6829,11.2805,,,
0.7209,0.7776,1.6157,6.3415,-20.2744,11.1280,,,
0.7302,0.7830,1.5742,5.1220,-22.7439,10.1829,-26.5625,-115.2500,-2.6875
0.7932,0.7825,1.6047,4.0244,-18.1707,9.5732,,,
0.8246,0.8011,1.6577,2.5305,-5.8232,9.6951,,,
0.8252,0.8154,1.6455,2.6220,-5.0610,8.3537,,,
0.8258,0.8145,1.6562,4.3293,-7.7134,6.9512,,,
0.8914,0.7979,1.6882,6.0366,-7.8049,6.0366,,,
0.9287,0.7727,1.7009,,,,,,
,,,6.1585,-5.7317,5.5488,,,
,,,,,,-26.9375,-113.4375,-1.5000
0.8689,0.6946,1.6707,,,,,,
0.8555,0.6855,1.6401,,,,,,
,,,8.3537,-2.4390,6.7683,,,
0.8901,0.6821,1.6355,,,,,,
0.8074,0.6594,1.7009,,,,,,
0.8279,0.6765,1.7195,10.8537,-5.9146,8.4756,,,
0.8749,0.7165,1.6935,10.8537,-7.7439,6.1585,,,
0.8860,0.7256,1.6926,10.4268,-5.4878,6.2805,,,
0.8556,0.7452,1.6766,5.9756,-1.1585,3.4146,,,
0.8418,0.7326,1.6690,1.7073,-1.7683,0.3659,,,
0.8720,0.7433,1.6701,,,,-28.0625,-116.3750,-1.8750
0.9957,0.7047,1.6719,,,,,,
0.6366,0.7433,1.8523,-12.8963,80.3658,-2.8506,,,
,,,,,,-25.8750,-116.3750,-2.3125
0.3638,0.7197,1.7991,-3.9024,59.3293,-0.5488,,,
0.4800,0.7476,1.8113,-2.4390,51.0366,0.7927,,,
0.5542,0.7500,1.8826,-0.9756,50.8537,2.1341,,,
0.5872,0.7917,1.9224,-1.9512,50.7317,2.0732,,,
0.6091,0.7825,1.9615,-0.8537,47.8963,-2.1951,,,
0.6819,0.7500,1.8630,-1.0366,39.0244,-4.6951,,,
0.5542,0.7626,1.7117,-3.2927,27.5000,-4.6341,,,
0.4219,0.7454,1.5442,-4.8780,15.7317,-6.9512,,,
,,,-7.1341,3.1707,-9.2683,-22.9375,-116.3750,-1.5000
0.4534,0.6855,1.4797,,,,,,
0.4634,0.6260,1.5620,-10.3049,-8.1707,-8.5366,,,
0.5679,0.6277,1.7227,-11.2805,-8.8415,-9.9390,,,
0.8099,0.6521,1.8480,-16.0671,4.8780,-8.4451,,,
0.7014,0.7136,1.9543,-18.4146,12.9878,-13.2927,,,
,,,-19.1463,5.8537,-15.3049,,,
0.4510,0.7478,1.8595,-10.9451,-21.0671,-13.4451,,,
0.4871,0.7654,1.8599,-6.2195,-38.5366,-10.6707,,,
0.5945,0.7959,1.8721,-5.2439,-41.4024,-10.4878,,,
,,,,,,-22.5625,-115.6250,-2.6875
0.6196,0.7729,1.9150,-3.4756,-39.4512,-9.8171,,,
0.6147,0.7665,1.9740,-0.8841,-32.5305,-8.8720,,,
0.6501,0.7747,1.9734,2.3171,-21.0366,-6.5854,,,
0.6594,0.7947,1.9124,3.7805,-12.9878,-5.5488,,,
0.6190,0.8239,1.8313,6.4329,-6.8598,-4.3598,,,
0.6187,0.7749,1.7585,10.1220,-9.1463,-4.0244,,,
0.6267,0.7481,1.6934,10.2134,-8.0793,-5.1220,,,
,,,,,,-21.8750,-117.0625,-2.3125
0.7258,0.7485,1.6877,8.9634,-4.1463,-7.9268,,,
0.6587,0.7266,1.6377,7.6220,-4.5122,-8.6585,,,
0.5530,0.7195,1.5637,5.9756,-8.5976,-6.7683,,,
0.5801,0.7073,1.5849,5.5488,-13.2012,-6.7683,,,
0.7168,0.7063,1.6548,3.1707,-4.8780,-6.7683,,,
0.7075,0.7041,1.6458,2.5610,3.4756,-5.4268,,,
0.6311,0.7214,1.6509,1.3415,7.9878,-4.2683,,,
0.5581,0.7307,1.6257,0.1220,8.6585,-4.2073,,,
0.5183,0.7290,1.5879,-0.8537,6.6463,-2.2561,,,
0.4902,0.7075,1.5837,-0.9756,3.7195,-0.7927,-22.5625,-116.7500,-2.6875
0.5159,0.6870,1.6235,-1.8293,2.8049,1.0976,,,
0.5747,0.6824,1.6296,-2.8049,3.8415,2.4390,,,
0.5813,0.6846,1.6304,-3.4756,4.2683,3.2317,,,
0.5801,0.6934,1.6738,-4.6341,4.8780,3.7195,,,
0.6218,0.6858,1.7197,-5.2439,4.8171,3.9634,,,
0.6367,0.6763,1.7092,-3.8415,7.9573,4.3293,,,
0.7275,0.6394,1.6855,-2.8659,15.0000,2.4390,,,
0.7042,0.6304,1.7462,-2.1951,18.6585,1.0671,,,
,,,,,,-22.2500,-116.7500,-2.6875
0.5392,0.6869,1.7890,-0.3964,7.6220,1.7073,,,
0.5278,0.6792,1.8254,1.9512,-4.3293,3.0488,,,
0.5647,0.6729,1.8010,2.9878,-7.0122,3.5976,,,
0.5747,0.6646,1.7504,4.0854,-6.3110,5.2134,,,
0.5127,0.7034,1.7134,,,,,,
,,,3.1707,-4.3293,6.4024,,,
0.5010,0.7288,1.7002,2.3780,-5.0610,7.5000,,,
0.5465,0.7266,1.7443,1.2500,-5.6402,8.0183,,,
,,,,,,-22.9375,-116.3750,-2.6875
0.6389,0.6938,1.8105,1.2805,-2.8049,7.9878,,,
0.7243,0.7007,1.8582,1.0061,2.0732,7.1037,,,
0.6704,0.7251,1.8149,,,,,,
0.6426,0.7292,1.7732,0.8537,9.0854,5.1220,,,
0.6284,0.7310,1.7478,0.4268,6.5854,3.9634,,,
0.6230,0.7339,1.7656,0.9756,2.2561,3.1707,,,
0.6362,0.7322,1.7920,0.3354,0.0000,3.1707,,,
0.6270,0.7329,1.8047,0.2439,-1.8293,3.1707,,,
,,,,,,-22.5625,-117.4375,-2.3125
0.5757,0.7511,1.8197,0.8537,-4.5122,3.9024,,,
0.5979,0.7544,1.7974,1.3720,-6.3720,3.7805,,,
0.6101,0.7437,1.7769,,,,,,
0.6094,0.7422,1.7488,0.1525,-3.6890,3.9329,,,
0.6111,0.7349,1.7195,-0.4878,-4.4512,2.8659,,,
0.6316,0.7068,1.7434,-0.3049,-3.5366,2.9268,,,
0.6782,0.6870,1.7747,-0.3049,-0.9756,2.9878,,,
0.6995,0.6729,1.7874,-1.2195,0.9146,2.0732,,,
0.7034,0.6692,1.8127,-1.0366,1.5244,1.1585,-22.9375,-115.6250,-2.3125
0.7122,0.6689,1.8481,-0.1220,1.1585,-0.1829,,,
0.7424,0.6763,1.8999,0.5488,1.0366,-1.4024,,,
0.7163,0.7410,1.8268,4.0244,4.2988,-1.8293,,,
0.6140,0.7273,1.7893,,,,,,
,,,5.2439,-0.6707,-2.6220,,,
0.5963,0.7511,1.7820,8.2317,-9.3293,-3.9634,,,
0.6272,0.7542,1.8567,9.5732,-10.0000,-1.2805,,,
,,,9.4512,-10.1220,-1.0976,-23.6875,-117.8125,-1.5000
0.6201,0.7659,1.8071,10.0000,-9.3902,-0.4878,,,
0.5918,0.7576,1.7473,10.4268,-9.0244,0.8537,,,
0.6072,0.7458,1.7217,7.8963,-8.8720,1.9817,,,
0.6082,0.7100,1.6819,5.8537,-10.0000,2.6220,,,
0.5674,0.6885,1.6580,4.9390,-10.6707,2.5610,,,
0.5662,0.6785,1.6521,4.5732,-11.0976,2.8049,,,
0.5974,0.6702,1.6702,4.3902,-8.2317,2.9878,,,
0.6820,0.6879,1.6926,3.2317,-3.2927,2.9268,,,
0.7351,0.6858,1.7122,1.7073,2.1341,1.9512,,,
0.7712,0.6953,1.7617,0.5488,7.0732,0.9146,-24.0625,-115.2500,-2.3125
0.7573,0.7297,1.7302,0.0610,7.6829,0.9146,,,
0.7092,0.7244,1.7183,-0.1220,10.1220,-0.4878,,,
0.6835,0.7275,1.7767,0.0305,11.5244,-1.9207,,,
0.5952,0.7595,1.7737,-0.1220,9.5122,-3.0488,,,
0.5986,0.7751,1.7781,0.7927,2.6220,-2.1341,,,
0.6472,0.7666,1.7837,1.8902,-0.6707,-2.5000,,,
0.6895,0.7695,1.7935,2.5610,-0.6098,-2.9878,,,
0.6982,0.7722,1.7891,2.3171,1.0366,-2.9878,,,
0.6753,0.7703,1.7683,2.1341,2.0122,-2.1341,-23.6875,-116.7500,-0.3750
0.6384,0.7839,1.7532,,,,,,
0.6147,0.7979,1.7332,2.0732,1.2805,-2.1341,,,
0.6086,0.7942,1.7097,1.2195,-0.3049,-2.1341,,,
0.5991,0.7783,1.7024,1.0366,-1.4634,-1.5244,,,
0.6182,0.7612,1.7114,1.0366,-1.0366,-1.4024,,,
0.6602,0.7617,1.7510,1.0671,-0.4269,-0.9146,,,
0.6814,0.7583,1.7554,0.6707,0.9756,-1.5854,,,
0.6697,0.7537,1.7314,0.9146,1.3720,-1.6159,,,
,,,,,,-22.9375,-117.4375,-1.5000
0.6729,0.7542,1.7134,,,,,,
0.6917,0.7515,1.7112,0.6707,0.6707,-1.8902,,,
0.6956,0.7468,1.7234,0.4268,1.9512,-2.3171,,,
0.6877,0.7397,1.7300,0.6098,2.3780,-2.9878,,,
0.6567,0.7390,1.7291,1.4634,0.9756,-2.5000,,,
0.6301,0.7360,1.7549,2.2866,-1.3110,-2.6220,,,
0.6541,0.7292,1.7803,2.9878,-2.8049,-2.3780,,,
0.6538,0.7336,1.7722,2.9268,-3.1707,-2.1341,,,
0.6194,0.7407,1.7571,3.4146,-3.4146,-2.6829,-23.3125,-116.7500,-1.8750
0.6101,0.7607,1.7466,3.2927,-4.6341,-2.3171,,,
0.6040,0.7842,1.7383,2.8049,-5.3659,-2.9268,,,
0.6013,0.8054,1.7208,5.3963,4.4817,-4.2378,,,
0.6226,0.8745,1.7859,4.0244,16.5854,-5.0610,,,
0.6165,0.9041,1.7859,3.7195,20.7317,-4.2073,,,
0.5723,0.9382,1.7761,3.3537,19.8780,-3.4146,,,
0.5171,0.9868,1.7561,2.9878,15.3659,-2.8049,,,
0.4529,0.9958,1.6924,,,,-22.2500,-116.7500,-1.8750
,,,1.9512,9.3902,-1.6463,,,
0.3672,0.9736,1.7305,2.8659,4.5732,-0.3049,,,
0.3047,0.9539,1.7207,1.4024,-2.1951,1.4634,,,
0.3682,0.9465,1.6863,,,,,,
0.4458,0.9490,1.7620,1.6463,-10.3659,2.6220,,,
0.5774,0.9185,1.9282,2.4695,-11.4939,0.5793,,,
0.7364,0.9637,1.7820,-1.8902,1.8293,-4.8171,,,
0.5515,0.9326,1.6536,-5.3049,-0.6707,-5.2439,,,
0.4382,0.9331,1.5896,-7.2561,-8.5366,-3.1098,,,
0.3345,0.8867,1.5673,-11.8293,-26.2805,3.4451,-22.5625,-118.5625,-1.1250
0.4824,0.7727,1.6533,-14.4512,-33.7195,11.1585,,,
0.8487,0.6377,1.7309,-14.5122,-25.0000,11.2195,,,
0.8662,0.5403,1.6537,-18.6890,10.0000,10.0000,,,
,,,-20.3659,21.5244,9.8780,,,
,,,,,,-24.3750,-116.7500,-2.6875
0.7314,0.5227,1.5947,-19.6951,23.1707,8.4756,,,
0.6790,0.4685,1.5916,-17.6220,24.8780,7.3171,,,
0.8090,0.3876,1.7433,-16.3415,25.9756,5.0305,,,
0.9277,0.4036,1.8308,-14.5122,22.0732,2.3171,,,
0.8342,0.3806,1.8462,-12.0122,17.3780,1.9512,,,
0.6970,0.3290,1.8569,-5.7012,2.8963,3.2012,,,
0.5864,0.3730,1.8213,,,,,,
0.5813,0.4431,1.7520,0.2439,-10.6707,3.0488,,,
,,,2.2561,-17.8049,4.2683,-24.0625,-113.1250,-4.2500
0.6216,0.5085,1.7007,3.1707,-20.4878,5.0610,,,
0.6768,0.5603,1.6787,3.2317,-19.8171,4.6951,,,
0.7324,0.5632,1.6655,,,,,,
0.7207,0.5733,1.6311,0.8537,-13.6585,4.9085,,,
0.6890,0.6035,1.6436,-2.1951,-5.8537,6.0366,,,
0.7149,0.6308,1.7229,-3.4451,-6.1890,4.8780,,,
0.7864,0.7356,1.8950,-1.7683,-4.6341,6.1280,,,
0.8423,0.8181,2.0901,,,,,,
0.8015,0.8579,2.0352,4.4207,-2.3171,3.1402,-25.1250,-114.5625,-3.4375
0.6409,0.8350,1.8765,8.1707,0.6707,4.3293,,,
0.5986,0.7949,1.7593,8.5976,0.3049,5.5488,,,
0.6265,0.7334,1.7393,9.5122,-2.0732,4.8171,,,
0.6145,0.6807,1.7864,,,,,,
,,,8.9634,-3.6585,3.1098,,,
0.5833,0.6589,1.8040,8.5366,-5.3049,3.7195,,,
0.5947,0.6655,1.7852,7.5610,-6.7683,3.4756,,,
0.6967,0.7121,1.7223,6.7073,-6.8598,5.1829,,,
0.5947,0.7620,1.6958,5.6707,-6.7683,5.3049,,,
0.5524,0.7265,1.7421,7.1341,-10.1220,4.2073,,,
,,,8.2317,-13.9024,3.4756,,,
0.8303,0.7085,1.8142,,,,,,
0.7289,0.7103,1.7374,4.4360,0.2896,-0.0152,,,
0.6128,0.6897,1.7170,6.0976,-8.9024,0.7927,,,
0.6848,0.6953,1.7217,5.6707,-11.4024,0.9756,,,
,,,,,,-25.5000,-114.9375,-1.8750
0.6755,0.7219,1.7373,5.0000,-11.1585,2.0122,,,
0.6477,0.7395,1.7500,5.4878,-11.6463,3.0488,,,
0.6587,0.7273,1.7527,,,,,,
0.7590,0.7348,1.7598,,,,,,
,,,7.4390,-13.5976,2.1951,,,
0.8018,0.7438,1.7611,7.5000,-10.4878,2.1341,,,
0.7039,0.6970,1.6924,2.1951,0.6707,-3.2927,,,
,,,3.0488,-3.6585,-2.5610,,,
0.7512,0.7178,1.7061,2.3171,1.9512,-1.2805,,,
0.7561,0.6807,1.6980,,,,,,
,,,,,,-26.2500,-115.6250,-3.0625
0.7263,0.7605,1.6707,1.1585,-4.1463,0.7927,,,
0.6970,0.7728,1.7215,,,,,,
0.7615,0.7283,1.7236,3.2317,-27.5610,3.8415,,,
0.8070,0.7386,1.6947,,,,,,
0.8848,0.7493,1.6440,2.3171,-20.1829,1.5549,,,
0.9142,0.7572,1.6616,,,,,,
,,,-1.0366,-4.4512,-1.0366,,,
0.8491,0.7634,1.6599,,,,,,
0.8555,0.7468,1.6528,-2.3780,6.0366,0.0000,,,
,,,-1.8902,4.2073,-1.3415,,,
0.8115,0.7260,1.6715,,,,,,
0.8872,0.7515,1.6717,0.4878,-2.9878,-0.2439,,,
0.8140,0.7446,1.6379,,,,,,
0.8361,0.7441,1.6625,-0.7317,2.6524,0.0610,,,
0.8468,0.7422,1.6589,1.0976,-1.6463,-0.1829,,,
0.8376,0.7537,1.6633,0.9756,-0.8537,-0.3049,,,
0.8345,0.7473,1.6624,0.3659,1.7073,-0.5488,,,
0.8313,0.7473,1.6667,,,,,,
0.8401,0.7456,1.6599,-0.0610,0.9756,-0.2439,,,
0.8477,0.7380,1.6650,0.3659,-0.4269,-0.3963,,,
0.8438,0.7423,1.6591,-0.1829,-0.0610,-0.3049,,,
,,,-0.4878,0.8537,-0.0610,,,
0.8127,0.7351,1.6597,-0.7317,2.0122,0.1220,,,
0.8357,0.7351,1.6689,,,,,,
0.8269,0.7419,1.6531,-0.6707,1.0366,-0.3659,,,
0.8093,0.7361,1.6577,0.4268,0.8841,-0.4878,,,
0.8191,0.7334,1.6685,0.7927,1.6463,0.0610,,,
0.8369,0.7305,1.6824,,,,,,
0.8508,0.7319,1.6733,0.8537,2.5915,-0.6707,,,
0.8726,0.7566,1.6562,,,,,,
0.8427,0.7549,1.6530,0.4878,3.5366,-1.4024,,,
0.8186,0.7471,1.6790,,,,,,
0.8401,0.7539,1.6765,1.1585,0.3659,-0.3659,-29.5000,-116.0000,-2.3125
0.8250,0.7422,1.6562,,,,,,
0.8234,0.7413,1.6528,0.1220,0.0000,-0.4268,,,
0.8376,0.7472,1.6681,-0.2744,1.7988,0.0915,,,
0.8337,0.7478,1.6759,-0.2439,2.3171,0.3659,,,
0.8308,0.7426,1.6739,0.1220,-0.2439,0.2439,,,
0.8357,0.7412,1.6726,-0.0610,-0.5488,0.2439,,,
0.8203,0.7488,1.6724,-0.3049,0.2439,0.0610,,,
,,,-0.5488,0.5488,0.3049,-28.7500,-114.9375,-2.3125
0.8113,0.7542,1.6646,-0.8537,0.0000,0.6707,,,
0.8202,0.7390,1.6776,-0.5488,-0.3659,0.4878,,,
0.8181,0.7559,1.6665,0.6707,-1.2805,0.3659,,,
0.8359,0.7534,1.6577,0.6098,-1.7073,0.4268,,,
0.8494,0.7437,1.6599,0.3049,-0.7927,0.4268,,,
0.8410,0.7358,1.6745,,,,,,
0.8250,0.7480,1.6663,0.0305,0.4573,-0.3049,,,
0.8252,0.7498,1.6604,,,,,,
0.8254,0.7480,1.6663,0.2439,0.0610,0.0610,,,
0.8245,0.7395,1.6692,0.0610,0.0000,0.3049,,,
0.8074,0.7346,1.6763,0.0610,0.1220,0.5183,,,
0.8398,0.7517,1.6833,,,,-29.5000,-114.9375,-2.3125
0.8282,0.7522,1.6583,0.8841,-1.2195,0.1525,,,
0.8181,0.7463,1.6659,,,,,,
0.8346,0.7503,1.6686,-0.0610,-0.7317,-0.0610,,,
0.8264,0.7439,1.6619,,,,,,
0.8264,0.7495,1.6650,-0.3659,0.9146,0.0000,,,
0.8162,0.7356,1.6646,0.4878,-0.1220,0.3049,,,
,,,0.4878,-0.6707,0.4878,-28.3750,-114.5625,-3.0625
0.8245,0.7429,1.6812,0.7927,-1.2195,0.3049,,,
0.8425,0.7441,1.6780,0.6098,-1.1585,0.0000,,,
0.8455,0.7478,1.6633,,,,,,
0.8342,0.7478,1.6636,0.1525,0.3353,-0.0915,,,
0.8257,0.7466,1.6777,0.4268,0.1220,-0.0610,,,
0.8147,0.7429,1.6652,-0.1220,0.3659,-0.2439,,,
0.8251,0.7469,1.6962,,,,,,
,,,0.1829,0.0610,0.6098,,,
0.8207,0.7471,1.6504,1.0061,-2.1951,0.9146,,,
0.8106,0.7401,1.6538,0.1829,0.4268,0.1829,,,
0.7812,0.7342,1.6829,0.5488,-2.4390,0.5488,,,
,,,1.2195,-3.9634,0.7317,,,
0.8118,0.7511,1.6549,0.6707,-3.7195,0.7927,,,
,,,0.7317,-3.4146,0.5488,,,
0.8906,0.7510,1.6597,0.1220,-1.0976,0.6098,,,
0.8174,0.7478,1.6699,-0.8537,4.4512,-0.2439,,,
0.7986,0.7446,1.6702,-0.7927,3.7195,-0.8537,,,
0.8015,0.7432,1.6755,0.0305,0.0000,-0.0915,,,
0.8284,0.7363,1.6726,0.3049,-1.5244,0.6098,,,
0.8455,0.7405,1.6714,,,,,,
,,,0.5488,-1.4024,0.0000,,,
0.8455,0.7453,1.6711,0.0610,-0.4878,0.0000,,,
,,,0.1220,0.3659,-0.3659,-27.6875,-116.0000,-2.6875
0.8216,0.7446,1.6664,,,,,,
,,,-0.2439,0.1829,0.3049,,,
0.8120,0.7444,1.6809,0.1220,-0.2439,0.1829,,,
0.8259,0.7458,1.6780,0.3049,-1.0366,0.0000,,,
0.8337,0.7466,1.6682,0.6707,-0.4878,-0.1220,,,
0.8223,0.7512,1.6675,0.0610,0.1220,0.6098,,,
0.8300,0.7492,1.6710,,,,-28.3750,-115.2500,-1.5000
,,,0.0000,-0.7927,-0.2439,,,
0.8379,0.7451,1.6599,,,,,,
,,,0.4268,-0.9756,0.3659,,,
0.8349,0.7474,1.6640,-0.2439,-0.1220,0.3659,,,
0.8269,0.7478,1.6650,-0.6098,0.5488,-0.0610,,,
0.8267,0.7444,1.6648,,,,,,
0.8254,0.7451,1.6692,-0.2439,0.0610,-0.1829,,,
0.8333,0.7527,1.6694,0.1829,-0.1829,0.3659,,,
0.8248,0.7473,1.6691,,,,,,
0.8550,0.7522,1.6973,-0.7927,-0.3659,-0.6707,,,
0.8284,0.7527,1.6682,,,,,,
,,,,,,-29.8750,-115.6250,-1.5000
0.8212,0.7452,1.6683,0.2439,-0.9756,0.5488,,,
0.8472,0.7485,1.6646,0.8537,-1.4634,0.0000,,,
0.8355,0.7460,1.6689,0.0000,0.4878,-0.1220,,,
0.8162,0.7405,1.6704,-0.2439,1.5244,-0.4268,,,
0.8182,0.7391,1.6879,,,,,,
0.8235,0.7449,1.6768,0.8537,-0.9756,0.4878,,,
0.8376,0.7556,1.6526,0.9756,-1.9207,0.0915,,,
0.8355,0.7471,1.6590,-0.9756,1.4024,-0.1220,,,
0.8247,0.7407,1.6863,-0.5488,1.1585,-0.2439,,,
0.8281,0.7463,1.6738,-0.1829,0.3659,0.1220,,,
0.8533,0.7585,1.6602,0.4878,-2.4390,0.1829,-28.3750,-115.3125,-2.6875
0.8594,0.7505,1.6680,-0.1830,-1.6159,0.3659,,,
0.8521,0.7476,1.6726,-0.2439,0.0610,-0.1220,,,
0.8214,0.7390,1.6693,-1.8902,-0.6707,0.1220,,,
0.8193,0.7349,1.6863,,,,,,
0.8352,0.7431,1.6925,-1.6463,-0.9756,-0.4268,,,
0.8328,0.7545,1.6604,-1.2195,-1.4634,-0.6098,,,
0.8259,0.7622,1.6372,-0.6098,-2.8049,-0.1829,,,
0.8359,0.7715,1.6331,-2.9268,-3.7195,0.3049,,,
,,,-4.9390,-4.0854,-0.1829,,,
0.8681,0.7590,1.6785,,,,,,
0.8009,0.7376,1.6762,-6.4329,6.4939,-1.7378,,,
0.8352,0.7390,1.6929,-5.6098,2.4390,-0.1829,,,
0.8623,0.7407,1.6826,-6.1585,1.1585,-0.8537,,,
0.8573,0.7016,1.7262,-4.8780,5.1829,-2.7439,,,
,,,-4.5732,6.0366,-2.3780,,,
,,,,,,-27.3125,-115.3125,-1.8750
0.8009,0.7027,1.7178,-3.9634,1.0366,-2.1341,,,
,,,-3.6585,1.3415,-2.1951,,,
0.7957,0.7164,1.6921,-3.1098,2.9878,-0.4878,,,
0.7944,0.7336,1.6951,-2.6829,-0.0610,-1.3415,,,
,,,-2.7439,-2.2561,-1.8293,,,
0.7832,0.7344,1.6875,-3.5366,-3.1707,-1.4634,,,
0.7839,0.7166,1.6807,-2.9878,-1.3415,-0.4268,,,
0.8247,0.6965,1.7104,-2.5000,-0.6098,-0.5488,,,
,,,,,,-27.6875,-113.1250,-3.0625
0.8247,0.7153,1.7005,,,,,,
0.8462,0.7197,1.7021,-2.1341,-1.0366,-2.5610,,,
0.8416,0.7313,1.7018,-2.4390,0.3049,-2.5000,,,
0.7168,0.7398,1.7222,,,,,,
,,,-1.0976,-3.9024,0.3049,,,
0.8112,0.7048,1.6875,-1.2805,-6.7683,-0.5488,,,
0.8530,0.7070,1.6821,-1.5244,-3.9634,-1.1585,,,
0.8472,0.6995,1.6733,,,,,,
0.8334,0.6789,1.6896,-1.5549,0.8537,-1.5854,,,
0.7903,0.6750,1.7180,-2.3171,2.9878,-1.7073,,,
0.7800,0.6824,1.7099,-0.3659,-3.3537,-2.0122,,,
0.8330,0.6987,1.6780,,,,,,
0.8251,0.6845,1.7281,1.5244,-6.0366,-0.7927,,,
0.8074,0.6587,1.7429,3.2927,-2.1341,-1.9817,,,
0.8194,0.7092,1.6593,4.5427,3.1098,-0.0610,,,
0.7910,0.6797,1.7000,4.5732,0.6098,2.1951,,,
0.7703,0.6560,1.6455,6.0976,-1.1585,3.0488,,,
0.8010,0.6441,1.6549,4.4512,-0.7927,3.9634,-28.3750,-114.5625,-2.6875
0.9163,0.6504,1.6438,1.8902,5.6098,1.4634,,,
0.9041,0.6641,1.6289,-0.3049,8.5976,2.4390,,,
0.9087,0.6917,1.6345,-1.9512,7.9878,2.2561,,,
0.8779,0.7156,1.6384,-2.7439,7.5610,0.7927,,,
0.7633,0.7381,1.7000,-3.2927,6.8293,1.9512,,,
0.6979,0.7202,1.8108,3.2927,-1.5244,-3.3537,,,
,,,,,,-28.7500,-113.8125,-2.6875
0.6724,0.7542,1.6873,,,,,,
0.8472,0.7703,1.6562,4.3902,-0.8537,-4.4512,,,
0.9387,0.7317,1.6897,4.9390,3.4756,-1.7683,,,
0.8118,0.7036,1.7163,3.7195,12.3780,-1.2195,,,
0.7851,0.6791,1.6415,3.7195,10.6707,-0.1220,,,
0.7783,0.7039,1.6780,2.3171,5.7622,1.6768,,,
0.8276,0.7185,1.6990,0.4268,1.5854,1.8902,,,
,,,1.5244,-0.9756,1.5854,,,
0.7317,0.7109,1.7490,1.2805,-3.7195,2.0732,,,
0.5563,0.6263,1.7634,5.6707,-17.0732,3.9024,-27.6875,-113.8125,-1.8750
0.7324,0.6072,1.9670,11.0366,-20.4268,2.2561,,,
0.6721,0.6582,1.9153,16.0976,-16.4025,-0.4878,,,
0.7688,0.7009,1.7295,,,,,,
0.9084,0.6985,1.6172,19.3293,-21.7683,-2.7439,,,
,,,19.2073,-25.0000,-7.5610,,,
1.0634,0.7365,1.5716,20.4878,-21.0976,-8.8415,,,
1.1262,0.8704,1.4590,12.6524,11.0366,-13.0183,,,
,,,,,,-28.3750,-115.6250,-2.3125
0.9512,0.8724,1.5429,-0.9756,40.6707,-9.0244,,,
0.5977,0.8477,1.8032,1.8902,31.8902,-1.6463,,,
0.8398,0.7672,1.6325,14.4512,-21.5854,10.7927,,,
0.9695,0.8008,1.6589,3.8415,-1.7683,6.1585,,,
1.0813,0.8003,1.6042,-0.3049,9.5122,4.5732,,,
0.9756,0.7400,1.5259,-2.4390,20.7317,4.7561,,,
0.8262,0.7771,1.6050,-2.9268,27.9268,-1.9512,,,
0.7659,0.7717,1.5470,,,,,,
0.7805,0.7664,1.6165,-10.6098,31.4024,-4.6951,,,
,,,-10.4268,29.8171,-4.2073,,,
0.8015,0.7971,1.6682,-12.0122,35.3659,-2.6220,,,
0.5542,0.7681,1.7654,-3.7195,5.7317,-1.6463,-26.5625,-116.3750,-2.3125
0.6965,0.7620,1.6636,,,,,,
,,,-3.4146,2.2561,0.1829,,,
0.8052,0.7890,1.6940,-9.3293,16.1585,4.3293,,,
0.7317,0.7966,1.7278,-12.3171,24.4512,2.6829,-26.2500,-115.6250,-2.6875
0.7146,0.7888,1.6309,-14.8780,24.9390,6.1585,,,
0.7542,0.8113,1.7498,-16.2195,27.6220,6.1585,,,
0.7837,0.7583,1.8662,,,,,,
0.6736,0.6624,1.8723,-12.0732,31.1585,4.5122,,,
0.3186,0.6692,1.8586,,,,,,
0.4239,0.7244,1.8480,,,,,,
0.4701,0.7490,1.7792,5.0610,2.1951,-2.3780,,,
,,,3.7195,-1.4024,0.9146,,,
0.4788,0.7450,1.7254,,,,,,
,,,1.7073,-4.5122,1.8293,,,
0.5312,0.7644,1.7224,0.9146,-9.5122,2.5610,,,
0.6642,0.7382,1.7380,,,,-22.5625,-116.7500,-3.8125
0.5615,0.7292,1.7808,,,,,,
0.5247,0.7163,1.8340,,,,,,
0.5100,0.6836,1.8511,-2.1341,2.5000,-2.3780,,,
0.5227,0.6772,1.8179,,,,,,
0.4878,0.6575,1.8362,-0.6707,1.2805,-1.8902,,,
0.5291,0.6927,1.7535,,,,,,
,,,2.0732,-3.2927,0.3049,,,
,,,,,,-23.6875,-113.8125,-2.3125
0.5391,0.7146,1.7998,1.1585,-4.5732,0.0000,,,
0.5200,0.7425,1.7940,1.5244,-6.4024,0.1220,,,
0.4682,0.7536,1.7393,,,,,,
0.1894,0.6701,1.7046,4.6951,-14.3293,2.9268,,,
0.4725,0.6145,1.7231,,,,,,
0.7495,0.6483,1.6858,6.7073,-28.2317,3.5366,,,
0.7922,0.6614,1.7523,0.5793,-15.9451,1.0671,,,
0.6780,0.6555,1.7292,,,,,,
0.6078,0.6523,1.8152,0.7927,-5.1220,-0.7317,,,
0.5823,0.7000,1.7844,0.5488,-7.2561,0.6707,,,
0.6091,0.7246,1.7429,,,,,,
0.6355,0.7329,1.7163,0.3659,-11.3415,2.8659,,,
,,,1.0366,-14.6951,2.6220,,,
0.6665,0.7522,1.7207,,,,,,
0.7305,0.7722,1.7632,1.6463,-16.2195,2.9268,,,
0.6960,0.7617,1.7354,1.7683,-12.2561,3.9329,,,
0.7024,0.7339,1.7356,3.0488,-11.0366,3.5366,,,
0.7500,0.7073,1.7871,3.9634,-7.9268,1.7073,,,
0.7629,0.7207,1.7805,3.5366,-3.8415,-0.6098,,,
0.7173,0.7207,1.7510,2.6220,-1.5854,-0.3659,,,
0.6784,0.7085,1.6890,,,,,,
0.7698,0.6897,1.7158,0.9756,-5.3354,0.3049,,,
0.7951,0.7067,1.7502,-0.9756,5.9451,-0.1524,,,
0.6941,0.6941,1.7637,-0.5488,4.2683,-1.2805,,,
0.6665,0.6838,1.7424,,,,-24.7500,-114.5625,-3.4375
0.7000,0.7056,1.7190,,,,,,
0.7017,0.7375,1.6943,,,,,,
0.7594,0.7361,1.7379,-0.0610,-1.7378,-0.2135,,,
0.7334,0.7539,1.7456,-0.7927,2.9878,-0.3659,,,
0.6462,0.7478,1.7002,-2.0732,4.2683,1.0366,,,
0.6912,0.7340,1.7018,-2.0427,-3.5366,1.3415,,,
0.7080,0.7297,1.7192,,,,-25.1250,-115.3125,-3.4375
0.7174,0.7024,1.7347,-4.0244,-0.2439,2.1341,,,
0.7336,0.6958,1.8030,-2.2866,2.8659,0.9451,,,
0.7566,0.7107,1.7561,-0.2439,-1.7683,0.3049,,,
0.6660,0.7017,1.6956,,,,,,
0.6543,0.6912,1.7393,0.7927,0.3659,1.0366,,,
0.7014,0.6865,1.7595,0.1829,1.1585,1.9512,,,
0.7405,0.6843,1.7405,0.6707,0.3659,0.7927,,,
,,,1.4024,0.2439,-0.5488,,,
0.7410,0.7002,1.7432,1.4024,1.4024,0.6707,,,
0.7109,0.7041,1.7461,2.1341,0.7317,1.3415,,,
0.7168,0.7125,1.7016,2.3780,-3.4146,0.6707,-25.8750,-115.6250,-2.6875
0.7278,0.7174,1.7234,2.1951,-4.5122,0.9146,,,
0.6689,0.7212,1.7429,0.8537,-1.1585,1.5244,,,
0.6765,0.7139,1.7959,0.4268,0.4878,2.0122,,,
0.7134,0.7063,1.7646,0.4268,-0.0610,1.6463,,,
0.7209,0.7249,1.7073,1.8293,-3.9329,0.0305,,,
0.7095,0.7480,1.6904,0.6707,-3.4146,0.7927,,,
,,,,,,-25.5000,-116.3750,-2.6875
0.7195,0.7466,1.7070,,,,,,
0.7474,0.7394,1.7601,0.3659,-1.0366,0.8537,,,
0.7051,0.7480,1.7412,-0.5488,0.8537,-0.9146,,,
0.6932,0.7291,1.7407,1.1585,-2.3171,-0.0610,,,
0.6814,0.7256,1.7363,,,,,,
,,,-0.3659,-0.1220,1.0976,,,
0.7041,0.7219,1.8108,,,,,,
0.7417,0.7263,1.8142,0.6402,-5.9756,0.6707,,,
0.7192,0.7551,1.7507,,,,,,
0.7648,0.7797,1.7252,,,,,,
0.7290,0.7654,1.7583,2.8659,1.4634,-3.4146,,,
,,,,,,-26.2500,-115.2500,-3.0625
0.6514,0.7539,1.7410,1.9512,2.3780,-1.2805,,,
0.7294,0.7189,1.7211,,,,,,
0.8005,0.6992,1.8179,1.7683,-7.1951,0.9146,,,
0.7532,0.6943,1.7939,2.3780,-4.6341,0.5488,,,
,,,1.6463,-1.7683,1.1585,,,
0.6978,0.7170,1.7214,2.2561,-1.1585,2.7439,,,
0.6892,0.7477,1.6847,2.5000,-4.5122,2.8049,,,
0.7637,0.7258,1.7234,2.9268,-5.9756,2.5610,,,
,,,,,,-27.6875,-114.9375,-3.4375
0.7772,0.6654,1.7454,2.8963,5.5183,-0.2135,,,
0.8108,0.6812,1.6538,5.8537,2.6220,-3.1098,,,
0.7278,0.6809,1.6125,2.0732,5.0000,-1.8293,,,
0.6856,0.6729,1.6838,-1.4329,-2.0427,-0.7622,,,
0.7048,0.6985,1.7495,-3.6585,-10.7317,1.0366,,,
0.7095,0.6970,1.7249,,,,,,
0.7620,0.7043,1.7151,-2.1646,-8.0793,1.7683,,,
0.8040,0.7202,1.6943,-1.2195,-4.3293,0.8537,,,
0.7600,0.6975,1.6565,,,,,,
0.7322,0.6794,1.6948,-1.6463,-0.4268,0.6098,,,
0.7458,0.6802,1.6721,-1.7073,2.0732,1.7683,,,
0.6951,0.6533,1.6548,-1.0366,2.5610,1.2195,,,
,,,-1.2195,2.6829,2.0732,,,
0.7107,0.6367,1.6880,-1.4024,-0.6098,2.8049,,,
0.7537,0.6694,1.7021,-0.6098,-2.1341,1.7073,,,
0.7607,0.6938,1.7002,-0.1829,-0.4268,1.4634,-27.3125,-113.8125,-3.8125
0.8293,0.6960,1.7742,,,,,,
0.7561,0.7192,1.7068,1.4634,-2.3171,0.0610,,,
0.7696,0.7688,1.7178,-0.0610,-0.1829,1.0366,,,
0.7385,0.7759,1.7673,-1.2195,3.3841,0.1220,,,
,,,,,,-26.9375,-115.2500,-3.0625
0.7031,0.7791,1.7578,0.0000,1.2195,0.2439,,,
0.6995,0.7772,1.7530,0.5488,0.4878,1.4024,,,
,,,1.2195,-1.3415,0.7927,,,
0.6985,0.7671,1.6672,0.6098,-2.7439,1.1585,,,
0.7078,0.7581,1.7180,-0.1829,-2.5610,1.6463,,,
0.8062,0.7460,1.7275,0.0915,-4.3598,0.0915,,,
0.7327,0.7283,1.7112,0.4878,-0.0610,1.3415,-27.6875,-116.0000,-2.6875
0.7378,0.7071,1.7161,1.6463,-1.8293,0.7927,,,
0.7212,0.7175,1.6904,-0.0610,-2.2561,0.4268,,,
0.7273,0.7053,1.6853,-0.9756,-3.6585,1.8293,,,
0.8042,0.7219,1.7561,0.1220,-4.3293,-1.0976,,,
0.7708,0.7209,1.7119,0.6707,-3.9024,-0.6098,,,
