TIMESTAMP,ACCX,ACCY,ACCZ,GYRX,GYRY,GYRZ,MAGX,MAGY,MAGZ,UID
166965072098,,,,,,,-13.1875,-67.0625,-4.6875,SGN
166965072101,0.5403,-0.2766,1.9456,-2.3780,2.6829,2.0122,,,,SGN
166965072103,0.5227,-0.2866,1.9419,-2.0122,1.0976,2.1341,,,,SGN
166965072104,0.6076,-0.2741,1.9135,-2.0122,2.2561,2.5305,,,,SGN
166965072107,0.6001,-0.2722,1.9537,-2.5000,8.1098,2.2256,,,,SGN
166965072108,0.5142,-0.2839,1.9438,-2.9878,7.3171,1.4024,,,,SGN
166965072109,,,,,,,-14.2500,-66.3125,-5.5000,SGN
166965072110,0.5181,-0.2670,1.9688,-3.4146,3.2622,1.7073,,,,SGN
166965072111,0.5632,-0.2695,1.9326,-2.9878,5.9756,1.4634,,,,SGN
166965072112,0.5781,-0.2749,1.8682,-2.3171,8.8415,1.5854,,,,SGN
166965072113,0.6317,-0.2913,1.8205,-0.2134,12.7744,0.5488,,,,SGN
166965072115,0.6204,-0.2791,1.8665,-0.7927,14.2683,1.1585,,,,SGN
166965072116,0.5862,-0.3112,1.9263,-0.7927,12.0732,0.3049,,,,SGN
166965072117,,,,-0.9146,9.7561,0.6098,,,,SGN
166965072118,0.5386,-0.3394,1.9346,-1.1585,7.3780,0.0610,,,,SGN
166965072119,0.5066,-0.3459,1.9331,-0.4268,5.1829,-1.0366,-13.1875,-67.0625,-5.8750,SGN
166965072120,0.5139,-0.3398,1.9414,-0.2439,3.6585,-0.9756,,,,SGN
166965072121,0.5100,-0.3259,1.9590,-0.6707,3.0488,-0.7317,,,,SGN
166965072122,0.5027,-0.3244,1.9636,-1.0976,2.1951,-0.7317,,,,SGN
166965072123,0.5112,-0.3274,1.9319,-0.5488,0.8537,-1.6463,,,,SGN
166965072124,,,,-0.6707,-0.3049,-1.4634,,,,SGN
166965072125,0.5448,-0.3171,1.9361,-0.2439,-1.8902,-1.8598,,,,SGN
166965072127,0.5681,-0.3147,1.9399,0.0610,-0.7927,-2.6220,,,,SGN
166965072128,0.5608,-0.3109,1.9191,0.0610,0.1220,-3.2317,,,,SGN
166965072129,,,,0.3049,-0.9146,-3.0488,-13.1875,-67.0625,-5.0625,SGN
166965072130,0.5300,-0.3003,1.9517,,,,,,,SGN
166965072131,0.5024,-0.2870,1.9688,-0.5488,-1.8902,-1.9207,,,,SGN
166965072132,0.5347,-0.2913,1.9443,-0.4268,-4.6341,-1.6463,,,,SGN
166965072133,,,,-0.5488,-4.1463,-1.1585,,,,SGN
166965072134,0.5831,-0.2876,1.9345,-0.2440,-1.3720,-0.5183,,,,SGN
166965072135,0.5725,-0.2783,1.9575,-0.2439,2.6220,0.5488,,,,SGN
166965072137,0.5262,-0.2821,1.9724,-0.1525,3.9939,0.5487,,,,SGN
166965072138,0.4915,-0.2874,1.9548,-0.1829,1.5244,1.1585,,,,SGN
166965072139,,,,,,,-13.5000,-66.6875,-4.6875,SGN
166965072140,0.5255,-0.2873,1.9392,-0.1525,1.1280,2.0427,,,,SGN
166965072141,0.5334,-0.2861,1.9023,1.0366,3.4146,2.1951,,,,SGN
166965072143,0.5302,-0.2886,1.9679,0.3659,1.5549,1.6768,,,,SGN
166965072144,0.5330,-0.2976,1.9150,0.6707,0.4268,1.4634,,,,SGN
166965072146,0.5052,-0.2809,1.9333,-0.4573,0.9756,0.7622,,,,SGN
166965072147,0.4988,-0.2800,1.9526,-0.7927,-0.0610,0.9756,,,,SGN
166965072149,0.5332,-0.2866,1.9512,-0.6098,-0.6707,0.7927,-12.4375,-66.3125,-5.8750,SGN
166965072150,0.5620,-0.3010,1.9390,-0.5488,-0.6707,0.7317,,,,SGN
166965072151,0.5640,-0.3081,1.9197,-0.6098,0.0000,0.5488,,,,SGN
166965072152,0.5591,-0.3123,1.9324,-0.3354,1.4939,0.1830,,,,SGN
166965072153,0.5444,-0.3203,1.9204,0.0610,1.7683,-0.4878,,,,SGN
166965072155,0.5396,-0.3149,1.9280,0.1829,1.6463,-0.6098,,,,SGN
166965072156,0.5237,-0.3018,1.9368,-0.4268,1.1585,-0.8537,,,,SGN
166965072157,0.5132,-0.3008,1.9407,-0.6098,0.5488,-1.0366,,,,SGN
166965072158,0.5243,-0.3060,1.9409,-0.5793,-0.4268,-0.8537,,,,SGN
166965072159,,,,,,,-13.5000,-66.0000,-4.3125,SGN
166965072160,0.5273,-0.3076,1.9246,-0.6098,-0.8537,-0.9146,,,,SGN
166965072161,0.5405,-0.3066,1.9262,-0.3354,-0.4574,-0.8232,,,,SGN
166965072162,0.5554,-0.3003,1.9402,-0.7317,0.6707,-0.8537,,,,SGN
166965072164,0.5405,-0.3031,1.9423,-0.6402,0.3049,-0.9756,,,,SGN
166965072166,0.5198,-0.3047,1.9331,-0.6707,-0.1220,-1.2195,,,,SGN
166965072167,0.5095,-0.3066,1.9380,-0.4268,-0.9756,-0.7927,,,,SGN
166965072168,0.5042,-0.2957,1.9524,,,,,,,SGN
166965072169,0.5056,-0.2991,1.9556,-0.4268,-1.9512,-0.4878,,,,SGN
166965072170,0.5193,-0.3052,1.9456,-0.9146,-2.9268,-0.7317,-12.8125,-66.0000,-3.5000,SGN
166965072171,0.5427,-0.3049,1.9487,,,,,,,SGN
166965072172,0.5625,-0.3076,1.9399,-1.1585,-2.8659,-0.6707,,,,SGN
166965072173,0.5645,-0.3077,1.9308,-0.6707,-0.7927,-0.7927,,,,SGN
166965072174,0.5369,-0.3013,1.9309,-0.3659,0.4268,0.1829,,,,SGN
166965072175,0.5383,-0.3020,1.9448,-0.2439,0.6098,-0.6098,,,,SGN
166965072176,0.5164,-0.2942,1.9685,-0.3049,0.8841,-0.5487,,,,SGN
166965072178,0.4973,-0.2949,1.9634,-0.8537,0.1829,0.0610,,,,SGN
166965072179,0.4994,-0.2984,1.9466,-0.8232,-0.6098,0.0915,,,,SGN
166965072180,,,,,,,-13.1875,-66.0000,-5.0625,SGN
166965072181,0.5037,-0.2957,1.9407,-0.3049,-2.0122,0.6707,,,,SGN
166965072182,0.5629,-0.2984,1.9409,-0.1220,-0.7927,0.5793,,,,SGN
166965072183,0.5273,-0.3108,1.9495,0.5488,0.7927,0.0610,,,,SGN
166965072184,0.4736,-0.3025,1.9387,-0.0610,-1.0976,0.4268,,,,SGN
166965072185,0.5020,-0.3000,1.9373,-0.0610,-4.3902,1.1585,,,,SGN
166965072186,0.5354,-0.2998,1.9409,-0.4878,-4.6951,0.9756,,,,SGN
166965072187,0.5618,-0.3022,1.9482,0.0000,-2.6829,1.2805,,,,SGN
166965072188,0.5679,-0.2898,1.9387,-0.2439,-0.6707,1.5854,,,,SGN
166965072189,0.5691,-0.2886,1.9316,0.1220,0.5488,2.1951,,,,SGN
166965072190,,,,,,,-12.8125,-66.0000,-3.5000,SGN
166965072191,0.5694,-0.3029,1.9384,0.5183,2.5305,1.6463,,,,SGN
166965072192,0.5552,-0.3066,1.9260,0.8537,3.7195,0.9146,,,,SGN
166965072193,0.5171,-0.3086,1.9500,1.4634,2.9268,1.8293,,,,SGN
166965072194,0.4851,-0.3081,1.9736,0.6098,1.0976,1.2805,,,,SGN
166965072195,0.5029,-0.3130,1.9617,0.6098,-0.9756,1.4634,,,,SGN
166965072196,0.5525,-0.3218,1.9275,0.0000,-1.3415,0.9146,,,,SGN
166965072198,0.5776,-0.3303,1.9116,-0.1220,1.3415,0.7927,,,,SGN
166965072199,0.5769,-0.3445,1.8823,0.1829,3.4146,0.6707,,,,SGN
166965072200,0.5867,-0.3320,1.9097,0.4878,4.6951,1.4634,-12.8125,-66.3125,-4.6875,SGN
166965072201,0.5627,-0.3186,1.9617,-0.0610,5.9146,1.5854,,,,SGN
166965072202,0.5356,-0.3071,1.9604,-0.3659,6.1585,0.3659,,,,SGN
166965072203,0.5081,-0.3281,1.9280,0.4878,3.4451,0.5793,,,,SGN
166965072204,0.4829,-0.3215,1.9287,1.3415,-0.6707,0.4268,,,,SGN
166965072205,0.4736,-0.3091,1.9387,2.3171,-3.7195,0.5488,,,,SGN
166965072206,0.4814,-0.2993,1.9421,3.9634,-5.7927,0.3659,,,,SGN
166965072207,0.4812,-0.2871,1.9624,4.2683,-6.4634,0.6098,,,,SGN
166965072209,0.5060,-0.2818,1.9548,3.8110,-7.7134,1.3720,,,,SGN
166965072211,,,,,,,-14.6250,-67.0625,-5.5000,SGN
166965072212,0.5352,-0.2921,1.9358,2.9268,-4.8171,2.4695,,,,SGN
166965072213,0.4966,-0.2869,1.9509,2.5000,-6.7073,4.2073,,,,SGN
166965072214,0.5334,-0.3127,1.9434,2.8659,-8.9024,4.3293,,,,SGN
166965072215,0.5669,-0.3311,1.9237,3.2317,-6.4634,4.0854,,,,SGN
166965072216,0.5620,-0.3330,1.9226,3.5366,-4.3902,4.3902,,,,SGN
166965072218,0.5793,-0.3369,1.9182,,,,,,,SGN
166965072219,0.5974,-0.3237,1.9138,4.6951,-4.4512,4.5732,,,,SGN
166965072220,0.5945,-0.2959,1.9465,4.4512,-3.5976,4.8171,,,,SGN
166965072221,0.5508,-0.2896,1.9463,3.2927,-1.9817,5.9146,-15.0000,-66.6875,-4.6875,SGN
166965072222,0.5190,-0.2881,1.9385,,,,,,,SGN
166965072223,0.5342,-0.2881,1.8984,2.9268,-2.5000,6.5854,,,,SGN
166965072224,0.5650,-0.2609,1.9123,1.6159,-2.5610,6.5549,,,,SGN
166965072225,0.5984,-0.2527,1.9717,0.8537,0.3049,5.7927,,,,SGN
166965072226,0.5852,-0.2578,1.9690,-0.4878,1.0976,4.8171,,,,SGN
166965072227,0.5728,-0.2705,1.9546,-1.2500,1.6768,2.7744,,,,SGN
166965072228,0.5962,-0.2917,1.9316,-0.9756,1.9512,1.9512,,,,SGN
166965072229,0.6094,-0.2937,1.9675,-0.1220,4.4512,2.8659,,,,SGN
166965072230,0.5884,-0.2852,1.9822,0.3659,5.8537,2.9878,-14.2500,-65.6250,-4.3125,SGN
166965072231,0.5420,-0.3074,1.9473,1.1585,6.1585,1.9512,,,,SGN
166965072232,0.5295,-0.3354,1.9187,2.2561,4.0244,2.1341,,,,SGN
166965072233,0.5115,-0.3389,1.9207,2.6220,3.5366,2.1341,,,,SGN
166965072234,0.5127,-0.3269,1.9543,2.8659,3.9024,2.4390,,,,SGN
166965072235,0.5566,-0.3032,2.0049,2.6829,4.0244,3.1707,,,,SGN
166965072236,0.5813,-0.2954,2.0156,2.3780,5.6098,3.9634,,,,SGN
166965072237,0.5901,-0.3203,1.9900,2.1341,8.3537,4.4512,,,,SGN
166965072238,0.5618,-0.3228,1.9438,2.8049,11.8293,4.2683,,,,SGN
166965072239,0.5132,-0.3062,1.9119,3.1098,12.5610,4.2073,,,,SGN
166965072240,0.4795,-0.3027,1.8914,3.4756,10.4268,4.3902,,,,SGN
166965072241,,,,,,,-13.5000,-66.0000,-4.3125,SGN
166965072242,0.5024,-0.2889,1.9106,2.7134,7.9878,3.7805,,,,SGN
166965072243,0.5017,-0.2832,1.9414,1.4634,6.6463,3.3537,,,,SGN
166965072244,0.5105,-0.2766,1.9463,0.1829,6.3415,2.0732,,,,SGN
166965072245,0.5422,-0.2739,1.9500,-0.2439,7.0732,1.8293,,,,SGN
166965072246,0.5554,-0.2761,1.9258,-0.9146,8.1707,1.2195,,,,SGN
166965072247,0.5317,-0.2905,1.8860,-0.7317,9.3902,1.0976,,,,SGN
166965072248,0.4753,-0.2969,1.8589,0.3659,9.0244,-0.2439,,,,SGN
166965072250,0.4868,-0.2703,1.9363,-1.2195,7.5000,-0.5488,,,,SGN
166965072251,0.5972,-0.2866,1.9241,-1.0976,8.7805,0.1220,-13.1875,-67.0625,-4.6875,SGN
166965072252,0.6440,-0.3103,1.9153,-0.6707,14.2073,-0.7927,,,,SGN
166965072253,0.5327,-0.3059,1.9221,-0.3049,19.2073,-2.4390,,,,SGN
166965072254,0.4524,-0.2952,1.9136,0.1220,18.4756,-2.3171,,,,SGN
166965072255,0.3953,-0.2703,1.9263,-0.3049,15.1829,-3.5976,,,,SGN
166965072256,0.3774,-0.2683,1.9626,-0.9146,11.6463,-4.3293,,,,SGN
166965072257,0.4562,-0.2771,1.9707,-1.0366,9.6037,-4.6037,,,,SGN
166965072258,0.4412,-0.2803,1.9746,-1.0366,9.5122,-4.8780,,,,SGN
166965072259,0.4148,-0.2856,1.9768,-0.9146,7.3171,-5.3049,,,,SGN
166965072260,0.4136,-0.2922,1.9780,-0.8537,4.6951,-5.4268,,,,SGN
166965072261,0.4304,-0.2959,1.9895,-0.5488,2.0122,-5.5488,,,,SGN
166965072262,,,,,,,-11.3125,-66.6875,-4.6875,SGN
166965072263,0.4440,-0.2983,1.9655,0.7317,1.0366,-5.8232,,,,SGN
166965072265,0.4570,-0.2903,1.9829,1.5854,0.8537,-4.8780,,,,SGN
166965072266,0.4517,-0.2947,1.9856,2.2561,1.0976,-3.7805,,,,SGN
166965072267,0.4399,-0.2983,1.9941,2.8049,0.9146,-3.3537,,,,SGN
166965072268,0.4338,-0.2930,1.9971,3.2927,0.8537,-2.4390,,,,SGN
166965072269,0.4093,-0.2880,1.9885,3.5671,-0.1830,-0.8232,,,,SGN
166965072271,0.4148,-0.2861,1.9817,3.1098,-2.0122,0.0610,,,,SGN
166965072272,0.4524,-0.2861,1.9614,2.9268,-2.8659,0.5488,-11.3125,-66.6875,-5.8750,SGN
166965072273,0.4785,-0.2771,1.9492,2.6829,-2.8049,0.4268,,,,SGN
166965072274,0.4824,-0.2734,1.9456,2.6829,-1.6463,0.4268,,,,SGN
166965072275,0.4764,-0.2699,1.9489,2.3171,0.3354,0.7012,,,,SGN
166965072276,0.4795,-0.2722,1.9426,2.1341,1.1585,0.6098,,,,SGN
166965072277,0.4758,-0.2710,1.9634,1.9512,1.5854,0.6707,,,,SGN
166965072278,0.4697,-0.2732,1.9607,1.2805,2.0732,0.6707,,,,SGN
166965072280,0.4473,-0.2786,1.9629,0.7317,1.5854,1.2805,,,,SGN
166965072281,0.4309,-0.2849,1.9766,0.3659,0.3659,1.5244,,,,SGN
166965072282,0.4375,-0.2947,1.9697,-0.0610,-1.0976,1.8293,,,,SGN
166965072283,,,,,,,-11.3125,-66.3125,-5.0625,SGN
166965072284,0.4538,-0.3010,1.9760,0.5183,-2.1951,3.4451,,,,SGN
166965072285,0.4304,-0.2917,1.9978,0.0000,-2.0732,4.3293,,,,SGN
166965072286,0.4238,-0.2954,2.0059,0.1220,-4.3902,5.4878,,,,SGN
166965072287,0.4491,-0.2932,1.9850,0.8537,-5.9146,6.4634,,,,SGN
166965072288,0.4648,-0.2910,1.9980,0.7927,-3.2317,7.4390,,,,SGN
166965072289,0.4431,-0.2759,2.0105,0.0000,-2.2561,8.2317,,,,SGN
166965072290,0.4830,-0.2752,1.9693,-0.7317,0.9756,7.8963,,,,SGN
166965072291,,,,,,,-11.6875,-66.3125,-4.3125,SGN
166965072292,0.5352,-0.2732,1.9363,-0.3659,7.7439,7.5000,,,,SGN
166965072293,0.5106,-0.2724,1.9234,-0.0305,11.0976,6.4634,,,,SGN
166965072295,0.4617,-0.2566,1.9126,-0.4268,11.2805,4.8780,,,,SGN
166965072296,0.4798,-0.2747,1.9053,-0.0915,8.7500,4.0854,,,,SGN
166965072298,0.4302,-0.2971,1.8679,0.9756,9.8780,2.7439,,,,SGN
166965072299,0.4534,-0.3012,1.9698,0.1829,6.3415,0.7317,,,,SGN
166965072300,,,,-0.6098,4.8780,0.7927,,,,SGN
166965072301,0.5222,-0.3103,1.9612,-0.3659,4.7561,1.2195,,,,SGN
166965072302,0.4888,-0.2925,1.8982,-0.0610,9.0854,-0.4268,-11.0000,-67.0625,-5.5000,SGN
166965072303,0.4744,-0.3008,1.8704,0.5488,12.3171,0.1220,,,,SGN
166965072304,0.5593,-0.3149,1.8464,1.7073,17.6829,-0.7927,,,,SGN
166965072305,0.6017,-0.2916,1.9187,2.7439,33.4756,-4.2378,,,,SGN
166965072307,0.4580,-0.2285,2.0457,1.4024,44.2073,-6.7683,,,,SGN
166965072308,0.2238,-0.2185,2.0606,-1.8902,37.5305,-7.0732,,,,SGN
166965072309,0.2458,-0.2451,2.0037,,,,,,,SGN
166965072310,,,,-2.7439,23.8415,-8.9024,,,,SGN
166965072311,0.2166,-0.1884,2.0553,-4.2988,19.5732,-7.8354,,,,SGN
166965072312,,,,,,,-8.4375,-66.6875,-4.6875,SGN
166965072313,0.1248,-0.2166,2.0063,-3.0488,9.9390,-8.2927,,,,SGN
166965072314,0.2657,-0.3352,1.9471,-0.7317,-0.1829,-7.1037,,,,SGN
166965072315,0.3906,-0.3464,1.9763,0.9146,-1.6463,-5.7927,,,,SGN
166965072317,0.3546,-0.3823,1.9876,1.1890,-3.3841,-4.0549,,,,SGN
166965072318,0.3684,-0.3701,2.0222,2.0732,-4.9390,-2.0732,,,,SGN
166965072320,0.3791,-0.3258,2.0297,3.4756,-1.4634,0.3354,,,,SGN
166965072321,0.2461,-0.3113,1.9712,5.3659,-0.4878,1.7683,,,,SGN
166965072322,,,,,,,-9.5000,-67.4375,-4.3125,SGN
166965072323,0.2173,-0.2923,1.9713,7.1951,-4.6341,2.4390,,,,SGN
166965072324,0.3088,-0.2615,2.0076,7.1341,-7.9268,2.6829,,,,SGN
166965072325,,,,6.6463,-9.3902,2.9878,,,,SGN
166965072326,0.3551,-0.2625,2.0234,5.8232,-8.4451,3.1707,,,,SGN
166965072327,0.3987,-0.3108,1.9734,5.0000,-8.6585,3.2927,,,,SGN
166965072329,0.4279,-0.3036,1.9630,5.0915,-6.1280,3.2317,,,,SGN
166965072330,0.4880,-0.2698,1.9800,4.4512,-1.8293,4.5732,,,,SGN
166965072332,0.4363,-0.2432,2.0227,3.9024,0.4268,5.0610,,,,SGN
166965072333,,,,,,,-8.8125,-68.1875,-5.5000,SGN
166965072334,0.3481,-0.2383,2.0176,3.4756,1.7683,4.1463,,,,SGN
166965072335,0.2908,-0.2621,1.9569,2.6829,-1.7683,2.6220,,,,SGN
166965072336,0.3369,-0.2427,1.9497,2.1951,-4.9390,0.9146,,,,SGN
166965072337,0.3958,-0.2173,2.0029,1.1585,-4.5732,1.0366,,,,SGN
166965072338,0.3821,-0.2008,2.0249,0.0610,-4.7256,0.6098,,,,SGN
166965072339,0.3467,-0.2400,1.9219,-0.6707,-4.1463,-1.6463,,,,SGN
166965072341,0.4351,-0.2588,1.8894,-0.3049,-1.4634,-1.3415,,,,SGN
166965072342,0.5122,-0.2512,1.8960,1.0366,4.6951,-1.5854,,,,SGN
166965072343,,,,,,,-9.5000,-66.3125,-3.9375,SGN
166965072344,0.4281,-0.2437,1.9383,1.1585,13.7500,-1.7988,,,,SGN
166965072345,0.3979,-0.2363,2.1033,-1.0976,11.7683,-1.2195,,,,SGN
166965072346,0.3872,-0.2546,1.9863,-1.7073,10.2439,-2.2561,,,,SGN
166965072347,0.1892,-0.2623,1.9524,-0.8537,8.9939,-3.3232,,,,SGN
166965072348,0.2085,-0.2375,1.9656,0.8537,-0.5488,-2.8659,,,,SGN
166965072350,0.3061,-0.2432,1.9784,2.3171,-4.5427,-4.5122,,,,SGN
166965072351,0.3845,-0.2625,1.9878,3.7195,-3.9634,-4.8171,,,,SGN
166965072352,0.3306,-0.2732,2.0083,,,,,,,SGN
166965072353,,,,5.6707,-5.7317,-4.6341,-9.1250,-67.8125,-4.6875,SGN
166965072354,0.2532,-0.2583,1.9983,5.5488,-9.8780,-4.6341,,,,SGN
166965072355,0.2590,-0.2366,2.0220,5.1220,-13.2927,-3.5976,,,,SGN
166965072356,0.3781,-0.2334,2.0221,3.7805,-9.6951,-2.1646,,,,SGN
166965072357,0.5183,-0.2737,2.0029,2.9878,0.0610,-1.3415,,,,SGN
166965072358,0.5339,-0.2998,1.9895,2.9878,6.5854,-0.4268,,,,SGN
166965072359,0.5432,-0.3022,1.9976,3.6585,9.8780,1.4634,,,,SGN
166965072361,0.4700,-0.2991,2.0149,2.8659,10.6707,2.0732,,,,SGN
166965072362,0.3045,-0.3043,1.9845,2.7134,4.9085,0.5183,,,,SGN
166965072364,,,,,,,-8.8125,-68.5000,-4.6875,SGN
166965072365,0.2974,-0.2677,1.9275,3.6890,0.6098,0.5488,,,,SGN
166965072366,0.2310,-0.2461,1.9985,4.8780,-2.1951,-1.2195,,,,SGN
166965072367,0.2051,-0.1946,2.1060,1.5854,-9.9390,-0.7927,,,,SGN
166965072368,0.3402,-0.1650,1.9806,1.4939,-14.8476,-1.0366,,,,SGN
166965072369,0.3665,-0.2009,1.8921,2.5610,-9.2073,-1.4024,,,,SGN
166965072370,0.4055,-0.2065,1.8706,2.9268,-7.8049,-0.7317,,,,SGN
166965072371,0.4280,-0.1621,1.8899,2.6220,-3.2927,-0.9756,,,,SGN
166965072372,0.4465,-0.1450,1.9856,1.8293,-0.9756,-0.9146,,,,SGN
166965072373,,,,,,,-10.2500,-68.5000,-3.5000,SGN
166965072374,0.4377,-0.1675,2.0581,0.1220,1.3415,-1.1585,,,,SGN
166965072375,0.4375,-0.2095,2.0112,-0.8537,2.8049,-1.4634,,,,SGN
166965072376,0.4094,-0.2212,1.9780,-1.6463,4.7561,-1.7683,,,,SGN
166965072377,0.3446,-0.2369,1.9266,-1.6463,4.0854,-1.8902,,,,SGN
166965072378,0.3352,-0.2539,1.9502,-1.4634,1.7073,-1.4024,,,,SGN
166965072379,0.3540,-0.2600,1.9863,-1.2805,0.8537,-1.0976,,,,SGN
166965072380,0.3767,-0.2678,2.0225,-2.0732,0.0610,-0.9756,,,,SGN
166965072381,0.3877,-0.2700,2.0476,-2.9268,-0.4268,-0.8537,,,,SGN
166965072383,0.3740,-0.2805,2.0146,-3.2317,-1.8293,-0.6707,-9.1250,-67.0625,-4.3125,SGN
166965072384,0.3193,-0.2844,1.9856,-3.1098,-5.4268,-0.6098,,,,SGN
166965072385,0.2903,-0.2605,1.9895,-3.8415,-9.2073,-0.6098,,,,SGN
166965072386,0.3891,-0.2475,1.9830,-3.2317,-9.6646,-0.7927,,,,SGN
166965072387,0.4863,-0.2485,1.9514,-2.1951,-3.9634,-0.3049,,,,SGN
166965072388,0.4331,-0.2258,1.9741,-2.1951,-0.0610,-0.1829,,,,SGN
166965072389,0.3496,-0.2080,1.9929,-2.5610,-0.5488,-0.1220,,,,SGN
166965072390,0.3342,-0.2134,1.9944,-2.9268,-2.6220,-0.1829,,,,SGN
166965072391,0.3816,-0.2312,1.9690,-2.8659,-2.5610,-0.2439,,,,SGN
166965072393,0.4426,-0.2610,1.9509,-2.0122,-0.3659,-0.1220,,,,SGN
166965072394,,,,,,,-9.5000,-68.8750,-4.3125,SGN
166965072395,0.3949,-0.2530,1.9991,-1.9817,2.4085,-0.4269,,,,SGN
166965072396,0.3267,-0.2461,2.0198,-2.3780,-0.7317,0.0000,,,,SGN
166965072397,0.3223,-0.2751,2.0051,-1.7073,-3.9024,0.5488,,,,SGN
166965072398,0.3486,-0.2984,1.9806,0.4878,-6.5244,2.2866,,,,SGN
166965072399,0.3523,-0.2957,1.9314,2.3780,-6.0366,4.9390,,,,SGN
166965072400,0.3816,-0.2759,2.0115,1.3415,-8.3537,6.5854,,,,SGN
166965072401,0.4365,-0.2468,2.1914,-0.6098,-8.4146,9.8171,,,,SGN
166965072402,0.4509,-0.2644,2.1040,-1.7073,-7.2561,10.6098,,,,SGN
166965072403,0.3574,-0.3284,1.9719,-1.2195,-7.0122,9.5732,,,,SGN
166965072404,0.3171,-0.3442,1.9746,-1.5854,-8.1098,8.7805,-11.6875,-68.8750,-4.6875,SGN
166965072405,0.3950,-0.3467,2.0273,-1.4634,-11.6463,10.4268,,,,SGN
166965072406,0.4150,-0.3591,1.9993,-2.3171,-13.1098,8.0488,,,,SGN
166965072407,0.4006,-0.3884,1.9922,-3.7195,-13.4146,5.0610,,,,SGN
166965072408,0.4678,-0.3940,1.9585,-4.0244,-17.6829,5.3049,,,,SGN
166965072409,0.5156,-0.3386,1.9143,-3.6585,-19.8171,6.0976,,,,SGN
166965072410,0.5195,-0.2842,1.9451,-2.9878,-16.0976,5.6098,,,,SGN
166965072411,0.5129,-0.2390,1.9624,-2.8049,-12.8049,4.8780,,,,SGN
166965072412,0.4834,-0.1873,1.9512,-2.9878,-9.2073,5.4268,,,,SGN
166965072413,0.4224,-0.1631,1.8997,-2.8659,-6.5854,5.0610,-11.0000,-68.8750,-4.6875,SGN
166965072414,0.4031,-0.1516,1.8923,-1.8293,-5.2439,3.2317,,,,SGN
166965072415,0.4058,-0.1279,1.9009,-2.3780,-3.5976,2.6220,,,,SGN
166965072416,0.4167,-0.1216,1.9336,-1.7073,-3.1098,2.9268,,,,SGN
166965072417,0.3872,-0.1526,1.9270,-0.5488,-5.9756,2.6220,,,,SGN
166965072418,0.3416,-0.1838,1.9185,0.7927,-10.1220,2.1341,,,,SGN
166965072419,0.3894,-0.2024,1.9092,2.5000,-11.9512,2.4390,,,,SGN
166965072420,0.4626,-0.2251,1.9026,3.7195,-9.5122,1.5854,,,,SGN
166965072421,0.5076,-0.2500,1.9324,5.6098,-5.2439,1.2805,,,,SGN
166965072422,0.5107,-0.2573,1.9189,7.1951,-1.0366,0.6707,,,,SGN
166965072423,0.4563,-0.2478,1.9287,8.0488,2.1341,-0.6098,,,,SGN
166965072424,,,,,,,-10.2500,-68.1875,-4.3125,SGN
166965072425,0.4165,-0.2344,1.9531,8.7805,2.4390,-1.4634,,,,SGN
166965072426,0.4263,-0.2273,1.9592,9.7561,2.0122,-1.0366,,,,SGN
166965072427,0.4541,-0.2148,1.9834,10.0000,3.2317,-1.4634,,,,SGN
166965072428,0.4896,-0.2045,1.9840,10.9146,8.0488,-2.6829,,,,SGN
166965072429,0.5308,-0.1719,2.0400,11.2805,11.5244,-0.4268,,,,SGN
166965072430,0.5151,-0.1772,2.0371,11.0976,11.3415,1.0366,,,,SGN
166965072431,0.5154,-0.2104,2.0173,10.8537,11.2195,0.1829,,,,SGN
166965072432,0.4888,-0.2625,2.0107,10.9146,10.3049,-0.3049,,,,SGN
166965072433,0.4141,-0.3015,1.9849,,,,,,,SGN
166965072434,0.3826,-0.3110,1.9641,10.4268,8.2927,-0.4878,-11.0000,-68.5000,-5.8750,SGN
166965072435,0.4072,-0.3108,2.0103,9.0854,5.0000,-1.3415,,,,SGN
166965072436,0.4414,-0.3025,2.0437,8.7805,3.4146,-0.8537,,,,SGN
166965072437,0.4345,-0.3042,2.0671,7.8659,5.7317,0.7317,,,,SGN
166965072438,,,,5.6098,7.6220,3.2927,,,,SGN
166965072439,0.3384,-0.2866,2.1255,3.1707,6.1585,3.4146,,,,SGN
166965072440,0.3800,-0.2726,1.9759,2.3780,1.4024,4.0244,,,,SGN
166965072441,,,,2.9268,-1.5244,1.7683,,,,SGN
166965072442,0.4753,-0.2756,1.8721,,,,,,,SGN
166965072443,0.4807,-0.2542,1.8958,2.6524,-0.4268,0.3963,,,,SGN
166965072444,0.4668,-0.2063,1.9612,2.0732,2.8659,-0.0610,,,,SGN
166965072445,,,,,,,-9.1250,-67.8125,-4.6875,SGN
166965072446,0.4541,-0.1880,1.9594,1.5244,2.2866,-1.5549,,,,SGN
166965072447,0.3809,-0.1868,1.9514,1.5244,0.2439,-3.4146,,,,SGN
166965072448,0.3528,-0.1592,1.9636,1.4024,-2.6220,-3.6585,,,,SGN
166965072449,0.3609,-0.1238,1.9585,0.9451,-5.0305,-4.5427,,,,SGN
166965072451,0.4014,-0.1333,1.9661,0.9756,-5.3049,-4.2073,,,,SGN
166965072452,0.4469,-0.1566,1.9506,1.4024,-2.9268,-4.2683,,,,SGN
166965072454,0.4658,-0.1904,1.9321,2.2561,1.3415,-4.5732,,,,SGN
166965072455,0.4570,-0.2002,1.9402,3.1098,2.5000,-4.5122,-9.5000,-68.5000,-6.2500,SGN
166965072456,0.4412,-0.1892,1.9580,3.2927,2.9268,-4.1463,,,,SGN
166965072457,0.4214,-0.1831,1.9775,3.5366,3.2927,-4.3293,,,,SGN
166965072458,0.4111,-0.1924,1.9903,3.0793,2.8049,-4.3293,,,,SGN
166965072460,0.4060,-0.1956,1.9844,2.6829,0.9146,-3.6585,,,,SGN
166965072461,0.4173,-0.2050,1.9600,2.5915,0.1220,-4.2378,,,,SGN
166965072463,0.4417,-0.2141,1.9387,2.6220,0.4268,-3.9024,,,,SGN
166965072464,0.4377,-0.2021,1.9414,2.5610,0.6707,-3.9024,-9.8750,-68.1875,-5.8750,SGN
166965072465,0.4370,-0.1975,1.9707,2.7439,1.1585,-3.5366,,,,SGN
166965072466,0.4368,-0.1846,2.0085,2.3780,1.5244,-2.8049,,,,SGN
166965072467,0.4037,-0.1631,2.0446,1.4024,2.8354,-2.5610,,,,SGN
166965072469,0.4238,-0.1719,2.0322,0.3659,2.4390,-1.7073,,,,SGN
166965072470,0.4059,-0.2122,2.0270,-0.4268,1.9817,-1.7683,,,,SGN
166965072472,0.3921,-0.2410,1.9631,-0.7927,0.3049,-1.8902,,,,SGN
166965072473,0.4153,-0.2346,1.9602,-0.6707,0.1829,-1.0976,,,,SGN
166965072475,,,,,,,-9.8750,-68.8750,-5.0625,SGN
166965072476,0.4359,-0.1925,2.0509,-1.1280,3.1707,-0.2134,,,,SGN
166965072477,0.4292,-0.1589,2.1472,-2.9268,2.9268,1.7073,,,,SGN
166965072478,0.4309,-0.1887,2.0635,-4.1463,1.7073,0.6707,,,,SGN
166965072479,0.4680,-0.2174,1.9455,-4.3293,-1.5244,0.5183,,,,SGN
166965072481,0.4290,-0.2090,1.9048,-3.5976,-1.4634,1.8293,,,,SGN
166965072482,0.3614,-0.2100,1.8738,-1.3720,-5.2744,0.6402,,,,SGN
166965072484,0.2368,-0.2031,1.8601,-0.1829,-9.8171,-0.4268,,,,SGN
166965072485,0.2380,-0.1638,1.9011,-0.3659,-11.4024,-0.2439,-9.5000,-69.2500,-5.0625,SGN
166965072486,0.3562,-0.1309,1.9429,0.3659,-9.9390,-0.1829,,,,SGN
166965072487,0.4434,-0.1287,1.9146,0.3659,-4.6341,-1.0366,,,,SGN
166965072488,0.4763,-0.1488,1.8551,1.0671,0.1524,-2.6829,,,,SGN
166965072489,0.4375,-0.1501,1.9094,2.3171,0.6098,-2.9268,,,,SGN
166965072491,0.4480,-0.1581,1.9876,1.5244,-1.4634,-2.0122,,,,SGN
166965072492,0.4006,-0.2126,1.9727,1.3415,-2.1341,-2.9268,,,,SGN
166965072494,0.3386,-0.2261,1.9080,1.4024,-6.0366,-3.4756,,,,SGN
166965072495,0.3123,-0.2241,1.8728,2.2561,-10.4878,-3.8415,,,,SGN
166965072496,,,,,,,-10.6250,-67.8125,-5.8750,SGN
166965072497,0.4281,-0.1861,1.9196,3.1707,-11.7988,-2.5610,,,,SGN
166965072498,0.5278,-0.1531,2.0178,3.3537,-6.2195,-0.7927,,,,SGN
166965072499,0.5566,-0.1292,2.1033,2.9268,-1.7683,0.6707,,,,SGN
166965072500,0.5239,-0.1438,2.0668,1.3110,2.3171,0.1525,,,,SGN
166965072501,0.4512,-0.1846,2.0090,0.7317,3.9024,0.2439,,,,SGN
166965072503,0.4094,-0.1961,1.9711,0.7927,2.2561,-0.0610,,,,SGN
166965072504,0.4368,-0.2019,1.9722,0.9756,-0.2439,-0.2439,,,,SGN
166965072506,0.4617,-0.2070,2.0071,0.6098,-1.2805,-0.7317,-10.6250,-68.8750,-6.2500,SGN
166965072507,0.4668,-0.2158,2.0125,-0.3049,-0.2439,-0.9756,,,,SGN
166965072508,0.4568,-0.2219,2.0234,-1.1585,0.8537,-0.6098,,,,SGN
166965072509,0.4392,-0.2105,2.0061,-1.9512,2.6829,-0.7318,,,,SGN
166965072510,0.4138,-0.2136,1.9299,-2.1951,4.5122,-0.3049,,,,SGN
166965072511,,,,-1.7683,3.3537,-0.3049,,,,SGN
166965072512,0.4418,-0.1950,2.0043,-2.1951,1.7683,0.1830,,,,SGN
166965072513,0.4377,-0.1826,1.9673,-2.3171,0.4268,0.1220,,,,SGN
166965072515,0.4229,-0.1870,1.9614,-2.3171,0.0610,0.1829,-10.2500,-69.2500,-5.0625,SGN
166965072516,0.4229,-0.1931,1.9639,-1.9512,-0.3049,0.9146,,,,SGN
166965072517,0.4097,-0.1809,1.9626,-1.7683,-0.4268,0.0610,,,,SGN
166965072518,0.4145,-0.1704,1.9754,-1.7988,-1.5244,0.1220,,,,SGN
166965072519,0.4666,-0.1921,1.9856,-1.6463,-1.2805,0.5488,,,,SGN
166965072521,0.4496,-0.2067,1.9732,-1.6768,-0.0305,-0.0305,,,,SGN
166965072522,0.4412,-0.2026,1.9802,-1.8293,-1.1585,0.4878,,,,SGN
166965072524,0.4309,-0.1973,1.9781,-2.2256,-0.7012,-0.2135,,,,SGN
166965072526,,,,,,,-10.6250,-68.1875,-6.2500,SGN
166965072527,0.4313,-0.2032,1.9638,-2.0122,-0.6707,0.0000,,,,SGN
166965072528,0.4202,-0.1941,1.9817,-2.0732,-1.3415,0.2439,,,,SGN
166965072529,0.4351,-0.1980,1.9812,-2.6829,-1.7073,0.6098,,,,SGN
166965072530,0.4577,-0.2104,1.9516,-2.9878,-1.0976,0.1220,,,,SGN
166965072531,0.4507,-0.2139,1.9387,-3.4756,-0.8537,0.3659,,,,SGN
166965072532,0.4434,-0.2087,1.9492,-3.6585,-1.7073,0.4878,,,,SGN
166965072533,0.4404,-0.2041,1.9602,-4.0854,-1.6463,0.0610,,,,SGN
166965072534,0.4536,-0.2129,1.9609,-4.2073,-1.2195,-0.3659,,,,SGN
166965072535,0.4558,-0.2139,1.9675,-4.5122,-0.3049,-0.3049,,,,SGN
166965072536,,,,,,,-11.0000,-68.1875,-5.8750,SGN
166965072537,0.4504,-0.2166,1.9678,-4.1463,-0.0610,-0.7927,,,,SGN
166965072538,0.4475,-0.2202,1.9722,-3.8415,-0.3659,-0.5488,,,,SGN
166965072539,0.4294,-0.2225,1.9714,-3.9939,-0.3659,-0.7622,,,,SGN
166965072540,0.4270,-0.2190,1.9714,-3.2317,-0.9146,-0.5488,,,,SGN
166965072541,0.4299,-0.2168,1.9802,-3.1707,-0.3659,-0.4268,,,,SGN
166965072542,0.4414,-0.2109,1.9910,-2.9878,0.3659,-0.2439,,,,SGN
166965072543,0.4487,-0.2070,2.0046,-2.5610,1.1585,0.4268,,,,SGN
166965072544,0.4407,-0.2048,1.9983,-2.3780,1.7073,0.1220,,,,SGN
166965072545,0.4253,-0.2104,1.9912,-2.2561,0.0610,0.4268,,,,SGN
166965072547,,,,,,,-12.4375,-67.8125,-5.0625,SGN
166965072548,0.4297,-0.2211,1.9662,-1.3720,-1.1585,0.6098,,,,SGN
166965072549,0.4441,-0.2207,1.9585,-0.9146,-1.2805,0.4268,,,,SGN
166965072550,0.4460,-0.2202,1.9709,-0.7927,-0.8537,1.0976,,,,SGN
166965072551,0.4372,-0.2213,1.9816,-1.0671,-0.7622,1.4024,,,,SGN
166965072552,0.4290,-0.2258,1.9634,-0.9756,-1.3415,1.1585,,,,SGN
166965072553,0.4365,-0.2212,1.9670,-0.7927,-1.2805,0.9756,,,,SGN
166965072554,0.4492,-0.2122,1.9646,-0.9146,-1.2195,0.9756,,,,SGN
166965072555,0.4565,-0.2158,1.9653,-0.5488,-0.9146,1.4024,,,,SGN
166965072556,,,,,,,-11.3125,-68.1875,-6.2500,SGN
166965072557,0.4569,-0.2267,1.9701,-0.0610,-0.6098,1.4634,,,,SGN
166965072558,0.4395,-0.2380,1.9773,-0.0610,-0.4878,1.2195,,,,SGN
166965072559,0.4441,-0.2400,1.9792,0.3659,-0.1829,1.1585,,,,SGN
166965072560,0.4448,-0.2371,1.9878,0.8537,-0.3659,1.1890,,,,SGN
166965072561,0.4458,-0.2405,1.9805,2.2561,-0.7317,0.7927,,,,SGN
166965072562,0.4482,-0.2410,1.9646,2.4390,-0.6707,0.1220,,,,SGN
166965072563,0.4382,-0.2288,1.9490,2.6829,-0.0610,0.7927,,,,SGN
166965072564,0.4219,-0.2090,1.9551,2.1341,-0.2439,0.6098,,,,SGN
166965072566,0.4238,-0.2014,1.9758,2.5610,-1.0976,0.8537,-11.3125,-68.5000,-4.6875,SGN
166965072567,0.4456,-0.2039,1.9810,2.2561,-0.7317,1.2805,,,,SGN
166965072568,0.4478,-0.1992,1.9773,1.8902,0.2439,1.1585,,,,SGN
166965072569,0.4334,-0.2071,1.9752,1.6159,-0.1220,1.0976,,,,SGN
166965072570,0.4487,-0.2268,1.9536,1.8902,-0.1220,0.4268,,,,SGN
166965072571,0.4741,-0.2319,1.9446,2.9878,0.0000,0.1220,,,,SGN
166965072572,0.4917,-0.2261,1.9263,2.9878,1.7683,0.0610,,,,SGN
166965072573,0.4709,-0.2158,1.9553,2.3171,3.1707,0.4878,,,,SGN
166965072574,0.4436,-0.2100,1.9900,1.3415,2.4390,0.1220,,,,SGN
166965072575,0.4360,-0.2136,2.0171,0.4268,1.6463,-0.3049,,,,SGN
166965072577,,,,,,,-10.2500,-69.2500,-5.8750,SGN
166965072578,0.4448,-0.2250,1.9786,-0.0915,1.0366,-1.1280,,,,SGN
166965072579,0.4270,-0.2290,1.9473,-0.1220,0.1220,-1.0976,,,,SGN
166965072580,0.4172,-0.2283,1.9526,-0.6098,-0.9756,-0.9756,,,,SGN
166965072581,0.4454,-0.2312,1.9765,-0.2134,-1.7683,-0.7012,,,,SGN
166965072582,0.4639,-0.2222,2.0010,-0.7317,0.3659,-0.5488,,,,SGN
166965072583,0.4524,-0.2197,1.9937,-0.6098,1.0366,-0.4268,,,,SGN
166965072584,0.4478,-0.2207,1.9946,-0.4268,0.8537,-0.5488,,,,SGN
166965072585,0.4475,-0.2163,1.9700,-0.8537,0.9756,-0.5488,,,,SGN
166965072586,0.4480,-0.2170,1.9854,-0.6098,0.4878,-0.1220,,,,SGN
166965072587,0.4456,-0.2229,1.9927,-0.9146,0.4878,0.1829,-12.0625,-69.2500,-5.8750,SGN
166965072588,0.4382,-0.2368,1.9751,-2.1341,0.7927,-1.0366,,,,SGN
166965072589,0.4482,-0.2388,1.9753,-2.0732,0.4878,-0.5488,,,,SGN
166965072590,0.4346,-0.2468,1.8948,-0.4268,1.0366,0.1829,,,,SGN
166965072591,0.4255,-0.2407,1.9761,-1.5854,1.8293,-1.8902,,,,SGN
166965072592,0.4543,-0.2095,2.0571,-1.4024,-0.3659,-2.1341,,,,SGN
166965072593,0.4548,-0.2307,1.9761,0.0610,-0.3659,-2.6220,,,,SGN
166965072594,0.4255,-0.2173,1.9290,1.4024,0.8537,-5.4878,,,,SGN
166965072595,0.4028,-0.2224,1.9465,4.3902,0.0000,-5.1829,,,,SGN
166965072596,0.3733,-0.2114,1.9370,5.9146,-4.9390,-6.0976,-12.4375,-68.8750,-5.5000,SGN
166965072597,0.3284,-0.1511,1.9016,3.9634,-6.5854,-7.9878,,,,SGN
166965072598,0.3308,-0.0894,1.9854,0.6707,-8.0488,-6.4634,,,,SGN
166965072599,0.4111,-0.0840,2.1118,-2.3780,-9.5122,-7.6829,,,,SGN
166965072600,0.5037,-0.1475,2.1235,-3.9024,-5.1829,-9.5122,,,,SGN
166965072601,0.5813,-0.1826,1.9824,-3.2927,2.3171,-9.8171,,,,SGN
166965072602,0.5137,-0.1741,1.8796,-1.4634,10.2439,-12.6220,,,,SGN
166965072603,0.3899,-0.1741,1.8669,0.1829,9.3902,-14.6341,,,,SGN
166965072604,0.3608,-0.1724,1.9114,1.2195,2.8659,-14.2683,,,,SGN
166965072605,0.4136,-0.1731,1.9841,1.2805,-2.8659,-14.8171,,,,SGN
166965072608,0.4485,-0.1731,2.0544,0.0000,-6.9512,-16.7073,-12.0625,-68.1875,-4.6875,SGN
166965072609,0.4690,-0.1672,2.0610,-2.8659,-9.5732,-18.1707,,,,SGN
166965072610,0.4585,-0.1697,2.0229,-4.5732,-12.6829,-20.0000,,,,SGN
166965072611,0.3715,-0.1936,1.9917,-6.0976,-21.8293,-21.1281,,,,SGN
166965072612,0.4087,-0.1826,1.9609,-7.2561,-30.3049,-22.3780,,,,SGN
166965072613,0.5425,-0.1587,1.9712,-7.9268,-28.6585,-22.3780,,,,SGN
166965072614,0.7110,-0.1109,1.9464,-9.5122,-19.7256,-23.8415,,,,SGN
166965072615,0.7769,-0.0688,1.9524,-12.9878,-12.7439,-25.1829,,,,SGN
166965072616,0.8679,0.0984,2.0117,-14.5122,-6.4634,-19.4512,,,,SGN
166965072617,1.1396,0.3848,2.0461,-15.0610,-0.9146,-22.9878,-14.2500,-67.4375,-5.0625,SGN
166965072618,1.4028,0.4431,2.0439,-20.7927,1.8902,-11.3415,,,,SGN
166965072619,1.2888,0.2932,2.0488,-22.8049,1.5244,-5.0610,,,,SGN
166965072620,1.2527,0.3765,1.8780,-25.4269,-21.1585,4.8171,,,,SGN
166965072622,1.1248,0.2678,1.8250,-28.4146,-27.9268,13.0488,,,,SGN
166965072623,1.2307,0.2490,1.8087,-29.9085,-24.1159,18.5975,,,,SGN
166965072625,1.2490,0.2234,1.8044,-30.0000,-15.2439,22.4390,,,,SGN
166965072626,1.1384,0.1812,1.7622,-28.4146,-13.9024,23.9024,,,,SGN
166965072627,1.0054,0.1145,1.7268,-25.9146,-15.1220,24.6951,,,,SGN
166965072629,0.9221,0.0696,1.6794,-22.4390,-19.9390,24.1463,-16.8125,-67.0625,-4.6875,SGN
166965072630,0.8113,0.0410,1.6187,-19.0854,-24.9390,22.9268,,,,SGN
166965072631,0.6926,-0.0039,1.5752,-12.9268,-31.3415,21.7073,,,,SGN
166965072632,0.5392,-0.0835,1.4835,-0.2439,-47.1647,16.4329,,,,SGN
166965072633,0.3938,-0.0994,1.4575,10.4878,-61.4024,11.0976,,,,SGN
166965072634,0.4712,-0.0818,1.4392,17.8049,-63.1707,4.2683,,,,SGN
166965072635,0.5932,-0.0820,1.4242,30.0305,-53.4146,-6.5854,,,,SGN
166965072637,0.5405,-0.1318,1.3867,44.5122,-42.5000,-16.7073,,,,SGN
166965072638,,,,,,,-17.1875,-70.6875,-5.0625,SGN
166965072639,0.4561,-0.1711,1.3748,54.5122,-39.5122,-25.4268,,,,SGN
166965072640,0.4141,-0.2092,1.3687,,,,,,,SGN
166965072641,0.3409,-0.2123,1.4036,68.7500,-45.7012,-37.8049,,,,SGN
166965072642,0.1807,-0.2312,1.5264,81.4024,-64.1463,-49.2683,,,,SGN
166965072643,0.1179,-0.2439,1.6086,86.8293,-78.3537,-57.7439,,,,SGN
166965072644,0.2712,-0.2030,1.6657,90.7317,-98.9330,-70.3963,,,,SGN
166965072645,,,,95.2439,-112.0732,-83.7195,,,,SGN
166965072646,0.4534,-0.2134,1.6357,99.6341,-111.5854,-93.7195,,,,SGN
166965072647,0.4519,-0.1589,1.5776,100.7927,-105.0610,-105.9146,-23.3750,-75.0625,-9.0000,SGN
166965072648,0.5229,-0.0684,1.6165,,,,,,,SGN
166965072649,0.6968,0.0125,1.7021,101.1585,-97.3171,-116.0976,,,,SGN
166965072650,1.0239,0.1821,1.9009,99.5427,-87.1646,-121.7683,,,,SGN
166965072651,,,,90.6098,-72.8659,-127.8049,,,,SGN
166965072652,1.1702,0.2456,2.1233,83.2317,-56.1585,-132.0732,,,,SGN
166965072653,1.1168,0.1969,2.1212,73.4756,-34.1159,-135.1830,,,,SGN
166965072655,0.9702,0.1975,2.0544,65.0000,-22.8659,-133.7805,,,,SGN
166965072656,0.8965,0.2359,2.0086,58.8110,-26.0366,-132.5305,,,,SGN
166965072657,,,,,,,-30.6875,-84.5625,-11.0000,SGN
166965072658,0.8982,0.3240,2.0623,52.3781,-32.3171,-132.6219,,,,SGN
166965072659,0.9197,0.3342,2.0928,49.5122,-33.4146,-133.9634,,,,SGN
166965072660,0.9434,0.3333,2.1548,48.2317,-32.9268,-136.2805,,,,SGN
166965072661,0.9114,0.3257,2.0754,46.0366,-33.5366,-138.2927,,,,SGN
166965072662,0.7920,0.3335,1.9041,41.4634,-36.3415,-139.6951,,,,SGN
166965072663,0.6594,0.3518,1.7629,35.4878,-42.6829,-141.0366,,,,SGN
166965072664,0.6448,0.3801,1.7295,29.5122,-52.9268,-141.1585,,,,SGN
166965072665,0.7809,0.4562,1.8163,23.9939,-66.5549,-137.6219,,,,SGN
166965072666,1.0220,0.5120,1.9319,19.2683,-74.7561,-131.5244,,,,SGN
166965072668,,,,,,,-34.6875,-89.6875,-10.1875,SGN
166965072669,1.1875,0.5349,2.0005,18.5976,-74.0244,-126.7073,,,,SGN
166965072670,1.2305,0.5667,1.8813,13.7805,-67.4390,-121.9512,,,,SGN
166965072671,1.1245,0.6136,1.7810,8.2317,-55.4878,-118.4756,,,,SGN
166965072672,0.8638,0.5139,1.6187,10.3049,-57.3781,-114.7561,,,,SGN
166965072673,0.5632,0.4790,1.4653,13.5976,-71.2805,-114.8171,,,,SGN
166965072674,0.2733,0.6602,1.2978,14.3598,-95.5488,-115.1830,,,,SGN
166965072675,0.5342,0.8240,1.1221,18.4146,-118.2927,-108.6585,,,,SGN
166965072677,0.9673,0.9378,1.2031,21.3415,-128.4451,-106.6158,,,,SGN
166965072678,,,,,,,-39.4375,-95.1250,-8.2500,SGN
166965072680,1.2498,1.0873,1.5381,21.3719,-126.4634,-102.1037,,,,SGN
166965072682,1.3428,1.1829,1.6226,19.2073,-134.2683,-89.6951,,,,SGN
166965072683,1.5597,1.3670,1.5798,17.5915,-142.6829,-78.9939,,,,SGN
166965072684,1.5740,1.4412,1.5269,14.1463,-138.1098,-67.8049,,,,SGN
166965072685,1.5994,1.3091,1.4326,20.2439,-140.4268,-61.5244,,,,SGN
166965072686,1.1486,1.1416,0.9454,26.7073,-158.3842,-52.8658,,,,SGN
166965072687,1.1470,1.3884,0.8149,29.2073,-203.4146,-40.6098,,,,SGN
166965072689,,,,,,,-47.4375,-97.6875,-1.1250,SGN
166965072690,0.9053,1.3892,0.8508,30.9756,-240.5488,-40.3049,,,,SGN
166965072691,0.8496,1.3850,0.9551,31.1585,-281.2805,-36.2805,,,,SGN
166965072692,1.1657,1.4844,0.9929,28.8719,-311.8293,-27.1341,,,,SGN
166965072693,1.6648,1.5930,0.9360,18.2317,-302.0122,-19.6341,,,,SGN
166965072694,1.7754,1.5645,0.9336,10.7927,-268.1098,-23.2927,,,,SGN
166965072695,1.6682,1.4727,0.7575,1.1890,-214.6646,-26.9817,,,,SGN
166965072696,1.4211,1.4058,0.4998,-2.9878,-173.2927,-27.4390,,,,SGN
166965072698,1.3091,1.3982,0.2996,-2.0732,-162.8659,-25.4878,-57.3125,-99.5000,11.8125,SGN
166965072700,1.3860,1.4395,0.1414,-0.3049,-158.1098,-20.6098,,,,SGN
166965072701,1.5762,1.5466,0.1428,-0.6098,-143.8415,-18.5366,,,,SGN
166965072702,1.7544,1.6177,0.2144,0.0000,-117.9268,-19.9390,,,,SGN
166965072703,1.8896,1.5815,0.2288,4.9390,-86.3415,-19.3293,,,,SGN
166965072704,2.1254,1.5252,0.0367,6.1280,-55.8842,-18.3231,,,,SGN
166965072705,1.7830,1.4822,0.1116,9.3293,-37.1951,-22.6829,,,,SGN
166965072706,1.2720,1.4587,0.0974,12.1341,-35.4268,-23.3537,,,,SGN
166965072707,1.1327,1.5013,-0.0943,16.6769,-50.3963,-24.9695,,,,SGN
166965072708,,,,,,,-58.7500,-100.6250,16.1250,SGN
166965072709,1.1594,1.4980,0.1003,,,,,,,SGN
166965072710,0.9376,1.6080,0.2791,23.9329,-49.8781,-27.1341,,,,SGN
166965072713,1.0983,1.6527,0.2782,23.1707,-52.3781,-34.1158,,,,SGN
166965072714,1.1685,1.6350,0.2253,19.8780,-57.9268,-35.6098,,,,SGN
166965072715,1.1089,1.6067,0.2312,17.8049,-62.0732,-37.0122,,,,SGN
166965072716,0.8508,1.5481,0.1118,16.2195,-64.1769,-44.6037,,,,SGN
166965072717,0.7712,1.5171,-0.0352,15.1829,-85.5488,-52.3781,,,,SGN
166965072718,1.0593,1.4810,-0.2605,15.7317,-98.3537,-54.6341,,,,SGN
166965072719,,,,17.7439,-109.3293,-53.5366,-59.1250,-104.2500,20.8750,SGN
166965072720,1.2119,1.4199,-0.3059,21.3415,-118.5976,-50.1829,,,,SGN
166965072721,1.1099,1.3967,-0.2920,25.9756,-125.9756,-53.7805,,,,SGN
166965072723,1.0908,1.4521,-0.3401,27.6220,-131.0366,-55.1829,,,,SGN
166965072724,1.3674,1.5063,-0.4529,26.8293,-136.6463,-49.3902,,,,SGN
166965072725,1.5187,1.4966,-0.4340,26.1585,-124.6646,-43.4146,,,,SGN
166965072726,1.4431,1.4041,-0.4456,30.6707,-101.6463,-38.5976,,,,SGN
166965072727,1.4939,1.4915,-0.5222,33.4756,-85.7927,-37.9268,,,,SGN
166965072728,1.2805,1.6096,-0.6061,38.5061,-69.5427,-40.5793,,,,SGN
166965072729,,,,,,,-59.1250,-107.9375,27.5625,SGN
166965072731,1.1538,1.6244,-0.7822,45.3963,-69.8170,-38.3537,,,,SGN
166965072732,1.4058,1.6809,-0.8516,49.2683,-59.2073,-32.1951,,,,SGN
166965072733,1.6858,1.7048,-0.7834,51.2195,-36.2195,-25.9146,,,,SGN
166965072734,1.4720,1.6768,-0.6699,51.8902,-15.6098,-20.7927,,,,SGN
166965072735,,,,50.3659,-6.5854,-16.8902,,,,SGN
166965072736,1.3240,1.7664,-0.2888,46.5244,-5.1829,-11.8293,,,,SGN
166965072737,1.2646,1.9155,0.1753,38.1098,-13.0488,-10.0000,,,,SGN
166965072738,0.9480,1.9697,0.4165,26.5244,-30.7927,-6.3415,,,,SGN
166965072740,0.9043,1.8896,0.4055,18.4756,-36.0976,-0.9756,,,,SGN
166965072741,,,,,,,-59.1250,-109.7500,30.6875,SGN
166965072743,1.2463,1.8015,0.0481,11.8293,-25.7317,1.9512,,,,SGN
166965072744,1.4490,1.7483,-0.3467,12.4390,-15.8537,2.6220,,,,SGN
166965072745,1.3672,1.7634,-0.5923,,,,,,,SGN
166965072746,1.3176,1.7761,-0.6707,14.1463,-9.0854,3.5976,,,,SGN
166965072747,1.3127,1.7302,-0.4968,16.5244,-7.0122,4.0244,,,,SGN
166965072748,1.2441,1.6038,-0.4114,16.8293,-1.5854,3.1098,,,,SGN
166965072749,1.1248,1.4609,-0.4778,16.0976,6.0976,2.6829,,,,SGN
166965072750,0.9988,1.4294,-0.6338,15.4878,12.1951,2.6220,,,,SGN
166965072752,1.0112,1.5950,-0.7566,21.8597,10.8841,-0.7317,,,,SGN
166965072753,1.0540,1.7375,-0.6721,26.8293,4.2683,-3.5976,,,,SGN
166965072754,,,,,,,-58.7500,-109.7500,31.1250,SGN
166965072755,1.3186,1.7368,-0.3079,20.4573,18.5975,-5.0915,,,,SGN
166965072756,1.4653,1.7305,-0.5537,28.9024,49.4512,3.8415,,,,SGN
166965072757,1.4889,1.9764,-0.5048,23.7195,32.2561,3.0488,,,,SGN
166965072758,1.4853,1.7869,-0.2072,24.6647,45.4269,1.4634,,,,SGN
166965072759,1.3455,1.5950,-0.0623,11.4024,61.2195,5.1829,,,,SGN
166965072760,1.3625,1.4241,-0.2661,1.2805,78.1707,1.2805,,,,SGN
166965072761,1.4370,1.4326,-0.2637,0.6707,87.4390,8.9024,,,,SGN
166965072762,1.2346,1.4702,-0.2827,-2.7439,105.9146,10.7927,,,,SGN
166965072763,,,,-0.9756,123.8415,7.0732,-59.5000,-108.6250,28.3125,SGN
166965072764,0.5791,1.3360,-0.7184,4.9390,99.0854,10.0610,,,,SGN
166965072765,0.1016,1.1311,-0.4001,6.9512,54.0854,4.9390,,,,SGN
166965072766,0.2808,1.1545,-0.2205,7.6829,12.6829,-1.6463,,,,SGN
166965072767,1.0222,1.2560,-0.1701,4.2683,-16.5854,-3.2317,,,,SGN
166965072768,1.1738,1.4011,-0.1040,0.6098,-15.3659,-1.8293,,,,SGN
166965072769,1.0354,1.3271,-0.1819,-4.5122,-11.4634,-1.4634,,,,SGN
166965072770,0.9841,1.2842,-0.2410,-8.6585,-15.0610,-0.7927,,,,SGN
166965072772,1.0149,1.3323,-0.3118,-12.5610,-17.1951,1.2195,,,,SGN
166965072773,,,,-14.5732,-17.7439,1.7073,-59.1250,-109.7500,28.3125,SGN
166965072774,1.0173,1.4443,-0.3269,,,,,,,SGN
166965072775,0.8677,1.5088,-0.3875,-16.5244,-19.6341,2.1951,,,,SGN
166965072776,0.9216,1.5873,-0.6438,-17.1037,-34.5122,5.5488,,,,SGN
166965072777,1.0823,1.6641,-0.6370,-15.7927,-38.9634,9.9390,,,,SGN
166965072778,0.9529,1.5872,-0.7083,-14.3293,-37.0122,10.5488,,,,SGN
166965072779,0.6487,1.4513,-0.6565,-10.6402,-54.3902,13.4451,,,,SGN
166965072780,,,,-5.1220,-89.0244,13.7805,,,,SGN
166965072781,0.7275,1.1099,-0.8445,0.6098,-112.6829,14.5732,,,,SGN
166965072782,1.2117,0.8821,-1.1716,4.7561,-110.2439,12.2561,-59.1250,-109.3750,31.0625,SGN
166965072783,1.5972,1.0176,-0.8022,8.7805,-76.2195,6.2195,,,,SGN
166965072784,1.5691,1.4487,-0.4121,3.2317,-45.0000,2.0122,,,,SGN
166965072785,1.5566,1.8836,-0.0794,-3.4756,-3.9634,4.7256,,,,SGN
166965072786,1.1638,2.1550,-0.3943,-6.7683,1.6463,5.4878,,,,SGN
166965072787,0.8359,2.1611,-0.6509,-1.6463,-11.3415,2.9268,,,,SGN
166965072788,1.0304,2.3445,-0.6373,2.7439,-20.1219,-3.5366,,,,SGN
166965072789,1.2908,2.4858,-0.3804,-2.3171,-11.2805,-2.8659,,,,SGN
166965072790,1.3254,2.2864,-0.3340,-5.0000,-0.6707,-4.0854,,,,SGN
166965072791,1.1799,2.0667,-0.3857,-3.7805,4.9390,-4.9390,-58.3750,-109.0000,31.8750,SGN
166965072792,1.2078,1.9614,-0.6177,-1.4024,-1.2805,-2.8049,,,,SGN
166965072794,1.3521,1.8076,-0.6753,-0.7317,1.0366,-2.6220,,,,SGN
166965072795,1.4780,1.5630,-0.6311,-1.7683,9.3902,-0.3049,,,,SGN
166965072796,1.5439,1.2825,-0.6626,-0.3049,27.5000,4.7561,,,,SGN
166965072797,1.4903,1.1161,-0.7452,5.5488,41.7378,10.2134,,,,SGN
166965072798,1.4414,1.2290,-0.5754,7.6829,56.8293,13.8415,,,,SGN
166965072799,1.3828,1.3218,-0.7173,12.8659,72.0122,17.5000,,,,SGN
166965072800,1.1250,1.4214,-0.8250,22.6829,73.7805,16.4024,-59.5000,-108.2500,31.1250,SGN
166965072801,0.8318,1.5171,-0.8535,27.1341,54.0854,14.2073,,,,SGN
166965072802,0.7610,1.5327,-0.4861,22.5610,51.0366,5.7317,,,,SGN
166965072803,0.8945,1.3059,-0.3618,24.8171,46.2805,6.3415,,,,SGN
166965072804,0.8662,1.3103,-0.3296,25.3659,37.5610,7.5000,,,,SGN
166965072805,1.1333,1.4810,-0.0637,13.2317,25.1220,5.5488,,,,SGN
166965072806,1.2479,1.0534,0.2190,2.2866,46.8903,5.2439,,,,SGN
166965072807,1.2310,1.0156,-0.1770,1.8293,57.5610,9.3293,,,,SGN
166965072808,1.1562,1.2161,-0.3354,-1.4024,60.8537,4.0854,,,,SGN
166965072809,0.8687,1.2378,-0.5666,4.5732,39.1159,3.6280,,,,SGN
166965072810,,,,,,,-59.8125,-108.2500,28.7500,SGN
166965072812,0.7620,1.3809,-0.3820,6.0366,-8.3841,1.7073,,,,SGN
166965072813,1.1482,1.5159,-0.1792,0.1829,-26.5854,2.5610,,,,SGN
166965072814,1.2354,1.5557,-0.0784,-5.3659,-26.5244,2.1951,,,,SGN
166965072815,1.1676,1.5497,-0.0311,-13.0488,-26.0975,0.9146,,,,SGN
166965072817,1.2114,1.5803,-0.0764,-19.5732,-36.7073,2.5000,,,,SGN
166965072818,1.1806,1.5276,-0.4103,-21.6463,-49.0549,3.2927,,,,SGN
166965072820,1.2549,1.5603,-0.6790,-17.9878,-55.6707,4.8171,,,,SGN
166965072821,1.4170,1.6782,-0.6799,-15.0000,-48.2317,4.6951,-59.5000,-107.9375,28.3125,SGN
166965072822,1.5488,1.6987,-0.6880,-9.8780,-40.4878,7.5000,,,,SGN
166965072823,1.3596,1.6494,-0.7527,-6.1585,-39.7561,10.5488,,,,SGN
166965072824,1.0637,1.3506,-1.0233,1.7378,-56.5548,13.6585,,,,SGN
166965072826,0.7236,1.2178,-0.9451,,,,,,,SGN
166965072827,1.0759,1.5385,-0.2807,5.8537,-68.2317,0.7317,,,,SGN
166965072828,,,,-1.0976,-17.9268,-10.1220,,,,SGN
166965072829,1.1880,2.1262,-0.0034,-11.4024,-3.7805,-5.4268,,,,SGN
166965072830,1.4702,2.0701,-0.3420,-11.5854,-0.3659,0.3659,-60.1875,-107.5625,31.5000,SGN
166965072832,1.3042,2.0095,-0.7122,-7.0732,-1.3415,4.2073,,,,SGN
166965072833,1.1780,2.1348,-0.7385,-3.9329,-12.5000,6.2195,,,,SGN
166965072834,1.2827,2.1577,-0.3862,-4.7561,-4.0854,5.8537,,,,SGN
166965072836,1.3045,1.9171,-0.3872,-5.3963,3.0793,7.9573,,,,SGN
166965072837,1.1404,1.6323,-0.6621,-2.4390,7.9268,6.4634,,,,SGN
166965072838,1.2095,1.4790,-0.8984,2.9878,7.3171,3.7805,,,,SGN
166965072839,1.4909,1.2956,-0.6266,4.6341,27.6525,3.1707,,,,SGN
166965072840,,,,,,,-59.8125,-106.4375,32.6875,SGN
166965072841,1.4343,0.9846,-0.5298,7.1951,51.8902,3.2927,,,,SGN
166965072842,1.2959,0.9729,-0.5471,9.2683,49.0854,5.6098,,,,SGN
166965072844,1.4958,1.1479,-0.4199,6.1585,52.5610,8.4756,,,,SGN
166965072845,1.6864,1.2088,-0.4261,4.4817,85.1830,9.8780,,,,SGN
166965072846,1.5762,1.4739,-0.8032,12.3780,107.7439,13.0488,,,,SGN
166965072847,1.7227,1.6763,-0.6067,3.9634,131.2195,8.2927,,,,SGN
166965072848,1.1361,1.4649,-0.3201,9.8476,137.2256,5.3049,,,,SGN
166965072849,1.0168,1.5356,-0.1174,7.1951,113.3537,5.4268,,,,SGN
166965072851,0.9216,1.4399,-0.0796,5.1220,94.9390,5.7317,-60.9375,-105.7500,25.1875,SGN
166965072852,1.1055,1.4915,0.1130,-2.0732,93.1098,5.6098,,,,SGN
166965072853,1.3547,1.4106,0.1611,-4.1463,108.5366,4.2073,,,,SGN
166965072854,1.7678,1.5491,-0.1731,-10.1829,138.9939,7.5305,,,,SGN
166965072855,2.1084,1.7092,-0.3567,-20.7317,177.6829,9.2073,,,,SGN
166965072857,2.0333,1.7492,-0.0704,-33.1097,216.6463,13.8720,,,,SGN
166965072858,1.9763,1.8794,0.3372,-49.9390,235.9756,25.5488,,,,SGN
166965072860,1.8670,1.9972,0.3020,-65.0610,240.7318,36.4025,,,,SGN
166965072861,,,,,,,-58.7500,-106.0625,15.3125,SGN
166965072862,2.0017,1.9531,0.1787,-70.0000,265.6098,47.5000,,,,SGN
166965072863,1.8381,1.8167,0.0859,-64.0244,256.6464,48.5976,,,,SGN
166965072864,0.9387,1.6482,0.1509,,,,,,,SGN
166965072865,0.3982,1.5146,0.3979,-62.9268,203.3537,43.3537,,,,SGN
166965072866,1.4684,1.5055,0.4814,-68.5670,120.9451,61.4634,,,,SGN
166965072867,2.2490,1.5542,0.5813,-71.8293,122.6220,70.9756,,,,SGN
166965072868,,,,-74.9390,168.5366,68.2317,,,,SGN
166965072869,2.3443,1.5548,0.6655,-75.0000,237.5305,76.8903,,,,SGN
166965072870,2.2500,1.5789,0.7412,-74.1463,276.6464,87.0122,,,,SGN
166965072871,,,,,,,-53.2500,-98.8125,2.3125,SGN
166965072872,1.9905,1.6145,0.8164,-77.5000,273.7805,94.6341,,,,SGN
166965072873,1.7986,1.5801,0.8745,-82.6829,253.7805,106.4634,,,,SGN
166965072874,1.8167,1.5078,0.9883,-88.1707,228.4146,118.7195,,,,SGN
166965072875,1.9258,1.4287,1.2474,-96.4025,223.7500,133.2927,,,,SGN
166965072876,2.1064,1.2781,1.3706,-96.8293,237.4390,149.3293,,,,SGN
166965072878,1.7922,1.1417,1.2918,-96.5244,232.7135,156.9512,,,,SGN
166965072879,1.4353,0.9084,1.1816,-93.2317,205.8537,164.8781,,,,SGN
166965072881,1.2419,0.8489,1.2310,-95.0610,179.4512,170.2439,-41.2500,-88.2500,-7.4375,SGN
166965072882,1.1428,0.8108,1.3152,-96.8902,157.1951,176.4025,,,,SGN
166965072883,1.0972,0.6877,1.3582,-95.6707,141.4634,182.8049,,,,SGN
166965072884,1.1287,0.5291,1.3503,-92.8049,132.3171,189.6342,,,,SGN
166965072885,1.1909,0.4426,1.3560,-90.9756,126.4024,192.9268,,,,SGN
166965072886,1.1074,0.3699,1.3184,-88.6585,119.8171,191.1585,,,,SGN
166965072887,0.5835,0.2579,1.3252,-85.7013,114.1463,180.5182,,,,SGN
166965072888,0.2927,0.2153,1.3145,-86.6463,113.7805,170.4268,,,,SGN
166965072889,0.3755,0.1755,1.2705,-84.0244,110.7317,166.4634,,,,SGN
166965072890,0.3579,0.0923,1.2214,-80.2439,103.5976,162.5000,,,,SGN
166965072891,,,,,,,-29.1875,-78.0000,-9.4375,SGN
166965072892,0.3877,-0.0085,1.2363,-79.0244,91.5854,160.0610,,,,SGN
166965072893,0.5369,-0.0686,1.3420,-80.1829,74.3293,158.5976,,,,SGN
166965072894,0.6008,-0.0864,1.4985,-81.7073,61.0366,151.4634,,,,SGN
166965072895,0.6150,-0.1116,1.6531,-81.8902,61.7073,141.7683,,,,SGN
166965072896,0.6032,-0.1597,1.7241,-80.8232,83.0183,125.4573,,,,SGN
166965072897,0.4016,-0.2129,1.6580,-82.9878,118.7195,109.3293,,,,SGN
166965072898,0.3821,-0.2646,1.5630,-80.7927,135.9146,102.0732,,,,SGN
166965072899,0.3359,-0.3459,1.4131,-70.9146,138.4756,94.8171,,,,SGN
166965072900,0.1914,-0.3923,1.1677,-67.8049,132.1951,88.3537,,,,SGN
166965072901,0.0771,-0.3411,1.0549,-67.3781,120.5488,75.6707,,,,SGN
166965072902,0.0200,-0.3840,1.1692,-62.1951,111.2805,61.1585,-19.3750,-71.0625,-7.4375,SGN
166965072903,-0.0801,-0.4932,1.3970,-48.5366,105.0610,53.1707,,,,SGN
166965072904,-0.0984,-0.6194,1.4092,-33.4146,92.5610,53.2317,,,,SGN
166965072905,-0.0508,-0.5225,1.0210,-31.8902,76.9512,44.3902,,,,SGN
166965072906,0.1182,-0.3865,1.0999,-29.1463,70.4268,27.0122,,,,SGN
166965072907,0.2317,-0.4207,1.3572,-22.0122,76.2195,19.3902,,,,SGN
166965072908,0.2117,-0.4551,1.6021,-14.5732,77.4390,20.7927,,,,SGN
166965072909,0.1753,-0.4253,1.8110,-6.1585,66.5854,20.1220,,,,SGN
166965072910,0.1626,-0.4370,1.6880,2.6220,46.8293,16.4634,,,,SGN
166965072911,0.1777,-0.4001,1.5386,7.0732,30.3049,9.0854,,,,SGN
166965072912,,,,,,,-13.1875,-68.5000,-5.8750,SGN
166965072913,0.4011,-0.2527,1.6248,8.4756,22.1951,5.0610,,,,SGN
166965072914,0.5752,-0.1961,1.8333,14.2683,21.0365,10.9451,,,,SGN
166965072915,0.3611,-0.3215,1.5891,23.2317,18.1707,9.3902,,,,SGN
166965072917,0.3029,-0.2898,1.4570,28.6891,23.5061,-1.6768,,,,SGN
166965072918,0.4028,-0.2007,1.7371,33.7805,37.9268,-0.9756,,,,SGN
166965072919,0.4014,-0.1946,1.9290,36.1585,45.3659,0.1220,,,,SGN
166965072920,0.4504,-0.1726,2.1191,37.6829,45.6098,-0.7317,,,,SGN
166965072921,0.6321,-0.0852,2.2075,38.0488,37.6829,2.4390,,,,SGN
166965072922,,,,,,,-11.3125,-68.8750,-5.0625,SGN
166965072923,0.6801,0.1407,2.1156,31.5243,36.3110,0.1524,,,,SGN
166965072924,0.6660,0.1477,2.1533,26.3415,41.7683,2.1951,,,,SGN
166965072926,0.5095,0.0184,2.0466,22.1647,37.8963,3.0488,,,,SGN
166965072927,0.2952,-0.0486,2.0913,19.2073,27.0732,3.9634,,,,SGN
166965072928,0.1733,-0.0818,2.0662,18.9024,11.6463,4.9390,,,,SGN
166965072929,0.1377,-0.0701,2.0056,18.4756,-4.3902,6.0366,,,,SGN
166965072930,0.2285,-0.0217,2.0027,17.6829,-16.4634,9.1463,,,,SGN
166965072931,0.3965,0.0393,2.0581,16.6463,-19.2073,12.0732,,,,SGN
166965072932,0.5239,0.0830,2.1101,15.9146,-12.3171,13.3537,-8.4375,-69.2500,-5.0625,SGN
166965072933,0.5962,0.0852,2.0981,16.5854,-1.0976,13.9024,,,,SGN
166965072934,0.5671,0.0464,1.9814,16.9512,7.1951,15.7927,,,,SGN
166965072935,0.5083,0.0032,1.8870,,,,,,,SGN
166965072937,0.3473,-0.0294,1.8838,20.5640,10.1677,21.9512,,,,SGN
166965072938,0.2241,-0.0095,2.0137,20.6707,11.8902,22.5610,,,,SGN
166965072939,0.1687,-0.0085,2.0393,20.4878,13.4756,20.3659,,,,SGN
166965072940,0.1543,-0.0117,2.0432,19.5732,14.5122,18.2317,,,,SGN
166965072941,0.1711,-0.0037,2.0745,18.2317,14.5122,17.0732,,,,SGN
166965072942,,,,,,,-7.6875,-69.6250,-5.0625,SGN
166965072943,0.1807,0.0125,2.1499,15.6707,13.2927,15.0610,,,,SGN
166965072944,0.2292,0.0276,2.1492,13.2927,10.8537,13.5366,,,,SGN
166965072946,0.2329,0.0200,2.0540,12.4390,6.7073,12.0732,,,,SGN
166965072947,0.1331,-0.0282,1.9685,11.8902,-2.0732,11.1890,,,,SGN
166965072948,0.0896,-0.0427,1.9509,10.7927,-10.6707,10.9756,,,,SGN
166965072949,0.1428,-0.0293,1.9912,9.4512,-12.8049,11.0366,,,,SGN
166965072950,0.2389,-0.0047,2.0281,7.7439,-8.9329,10.5183,,,,SGN
166965072951,0.2141,-0.0071,2.0027,6.7683,-1.3415,8.7195,,,,SGN
166965072952,0.1838,0.0085,2.0398,5.3049,-2.3171,9.3902,,,,SGN
166965072953,0.2078,0.0176,2.0115,,,,-7.3125,-71.4375,-4.3125,SGN
166965072955,0.2249,-0.0081,2.0024,3.2927,-12.3780,10.9146,,,,SGN
166965072956,0.2922,-0.0017,2.0400,1.5244,-12.5610,8.5976,,,,SGN
166965072957,0.2542,-0.0352,2.0288,-0.3049,-12.5610,9.0854,,,,SGN
166965072958,0.1982,-0.0945,1.9902,-0.7927,-13.1707,8.4146,,,,SGN
166965072959,0.2130,-0.1300,2.0051,-0.7012,-13.9939,7.2866,,,,SGN
166965072960,0.1753,-0.1167,2.0337,-0.1220,-12.6829,6.2805,,,,SGN
166965072961,0.1677,-0.0986,2.0173,-0.7317,-8.5366,3.6585,,,,SGN
166965072962,0.1707,-0.0859,2.0496,-2.5000,-5.4573,2.0427,-6.2500,-69.2500,-5.8750,SGN
166965072963,0.1689,-0.0681,2.0894,,,,,,,SGN
166965072964,0.1646,-0.0535,2.1023,-5.3659,-6.8902,0.5488,,,,SGN
166965072965,0.2202,-0.0640,2.0524,-7.6829,-9.8476,-1.5854,,,,SGN
166965072966,,,,-9.7561,-10.1829,-3.9634,,,,SGN
166965072967,0.2800,-0.0505,2.0320,-11.7073,-9.8171,-2.6220,,,,SGN
166965072968,0.2493,-0.0464,2.0366,-13.1098,-11.7683,-2.8659,,,,SGN
166965072969,0.2007,-0.0632,2.0334,-15.4878,-12.6220,-5.6098,,,,SGN
166965072970,0.1741,-0.0847,2.0371,-17.5610,-15.8537,-6.8293,,,,SGN
166965072971,0.2082,-0.0804,2.0091,-19.7561,-19.8171,-8.1707,,,,SGN
166965072972,,,,-22.7439,-22.7439,-10.5488,-6.6250,-70.3750,-5.0625,SGN
166965072973,0.2976,-0.0701,2.0137,,,,,,,SGN
166965072974,0.3242,-0.0918,2.0007,-24.9695,-27.8963,-11.2195,,,,SGN
166965072975,0.3101,-0.1311,1.9485,-25.2439,-36.6463,-9.8780,,,,SGN
166965072976,0.3259,-0.1743,1.9177,-24.6951,-43.1707,-8.4146,,,,SGN
166965072977,0.3678,-0.2067,1.9181,-22.7134,-44.0244,-6.0366,,,,SGN
166965072979,0.3667,-0.2083,1.9714,-21.8293,-40.2439,-3.9634,,,,SGN
166965072980,0.4276,-0.1615,2.0773,-22.8049,-33.3841,-3.4756,,,,SGN
166965072982,0.5024,-0.1362,2.1208,-23.7805,-23.5366,-0.9756,,,,SGN
166965072983,0.5027,-0.1677,2.1204,-23.9024,-16.4634,-0.1829,-9.1250,-67.8125,-4.6875,SGN
166965072984,0.4214,-0.2031,2.0876,-23.2317,-13.5366,0.8537,,,,SGN
166965072985,0.3230,-0.2415,2.0505,-22.2561,-14.8171,1.9512,,,,SGN
166965072987,0.2588,-0.2712,2.0396,-21.2805,-16.5244,3.0488,,,,SGN
166965072989,0.2777,-0.2684,2.0139,-19.6647,-16.6159,4.3902,,,,SGN
166965072990,0.3296,-0.3025,1.9922,-16.9512,-8.9024,2.5000,,,,SGN
166965072991,0.3101,-0.3323,1.9502,-14.4512,-6.0976,1.7683,,,,SGN
166965072992,0.4197,-0.3478,1.8785,-10.3354,-5.9451,1.8902,,,,SGN
166965072993,0.5234,-0.3455,1.8882,-6.1585,-2.9878,3.3537,,,,SGN
166965072994,,,,,,,-9.5000,-66.3125,-4.3125,SGN
166965072995,0.5019,-0.3385,1.9682,-3.0793,0.0000,4.6341,,,,SGN
166965072996,0.4097,-0.3418,2.0078,-1.2195,-0.6707,4.1463,,,,SGN
166965072997,0.3577,-0.3394,2.0107,-1.0976,-2.8049,2.9268,,,,SGN
166965072998,0.3680,-0.3552,2.0164,0.5183,-6.7073,1.7378,,,,SGN
166965073000,0.4106,-0.3525,1.9856,1.9512,-7.6829,-0.0610,,,,SGN
166965073001,0.4599,-0.3532,1.9822,3.4146,-4.6341,0.7927,,,,SGN
166965073003,0.4353,-0.2666,1.9915,5.6707,1.8293,-1.2805,,,,SGN
166965073004,0.5242,-0.2332,2.0081,6.4024,-3.5976,-0.3049,-10.6250,-67.0625,-3.9375,SGN
166965073005,0.5393,-0.3027,2.0669,3.5366,2.5610,3.4756,,,,SGN
166965073006,0.4917,-0.3293,2.0742,3.4146,1.4634,2.6829,,,,SGN
166965073007,0.3982,-0.2908,2.0166,1.9207,-4.7866,2.8354,,,,SGN
166965073009,0.3706,-0.3333,1.9558,2.1951,-9.8171,2.3171,,,,SGN
166965073010,0.4057,-0.2930,1.9291,2.8354,-10.7012,0.6098,,,,SGN
166965073012,0.5132,-0.3035,1.9377,2.8659,-5.4878,3.1707,,,,SGN
166965073013,0.4514,-0.2925,1.9329,3.6585,-10.9146,5.3659,-10.2500,-66.3125,-4.3125,SGN
166965073014,0.3638,-0.2563,1.9861,1.4634,-10.6707,4.8780,,,,SGN
166965073015,0.5095,-0.3047,2.0159,1.2195,1.7073,8.2317,,,,SGN
166965073016,0.6179,-0.3259,1.9275,4.5732,3.2927,7.8049,,,,SGN
166965073017,0.4937,-0.2747,1.8745,4.3293,0.4268,6.0366,,,,SGN
166965073018,0.4275,-0.3772,1.8364,-0.8537,-8.9634,12.7439,,,,SGN
166965073019,0.4617,-0.3281,1.9495,2.8354,14.6037,1.7073,,,,SGN
166965073020,0.4226,-0.2588,2.0425,0.2439,12.6220,3.1098,,,,SGN
166965073022,0.3375,-0.3173,2.0080,-0.8232,2.1341,1.6463,,,,SGN
166965073023,,,,,,,-9.8750,-67.4375,-3.9375,SGN
166965073024,0.3337,-0.3079,2.0112,4.1463,0.3659,-0.8537,,,,SGN
166965073025,0.4372,-0.2613,1.9794,4.0244,-0.0305,0.2134,,,,SGN
166965073026,0.4436,-0.2910,1.9688,4.8171,0.1220,-2.0122,,,,SGN
166965073028,0.4445,-0.2691,1.9716,1.8293,3.0793,-2.7744,,,,SGN
166965073029,0.4541,-0.2781,1.9890,1.0976,4.5732,-1.0366,,,,SGN
166965073031,0.4266,-0.2868,1.9665,1.5244,4.7561,-0.7927,,,,SGN
166965073032,0.4380,-0.3018,1.9358,1.4634,3.3537,-2.5000,,,,SGN
166965073034,0.4463,-0.2769,1.9707,2.2561,7.2561,-0.9146,-10.2500,-66.6875,-5.0625,SGN
166965073035,0.4529,-0.2571,1.9973,1.9512,8.0488,1.4634,,,,SGN
166965073036,0.4246,-0.2849,1.9895,,,,,,,SGN
166965073037,0.3882,-0.2974,1.9646,3.1098,6.9512,0.6098,,,,SGN
166965073038,,,,2.7439,5.6098,-0.3659,,,,SGN
166965073040,0.3910,-0.2864,1.9781,4.4817,6.0061,-0.1525,,,,SGN
166965073041,0.3508,-0.2825,2.0159,5.6098,3.5366,2.1341,,,,SGN
166965073042,0.3442,-0.2466,2.0845,3.1098,-0.7927,4.0244,,,,SGN
166965073043,0.4273,-0.2850,2.0505,2.8963,-4.6951,3.5366,,,,SGN
166965073044,0.4243,-0.3018,1.9817,2.3171,-5.8537,3.0488,,,,SGN
166965073046,0.3948,-0.2896,1.9587,2.3780,-6.9512,2.7439,-9.8750,-68.1875,-4.6875,SGN
166965073047,0.3933,-0.2810,1.9375,1.8902,-7.1341,1.4634,,,,SGN
166965073048,0.4453,-0.2825,1.9409,,,,,,,SGN
166965073049,0.4987,-0.2834,1.9440,3.1402,-2.5305,0.7927,,,,SGN
166965073050,0.4648,-0.2551,1.9858,3.1098,3.4146,0.9756,,,,SGN
166965073051,0.4304,-0.2649,1.9792,2.2561,5.1829,0.9146,,,,SGN
166965073052,0.3944,-0.2702,1.9753,1.0366,4.4207,1.0061,,,,SGN
166965073053,0.4092,-0.2712,1.9717,0.5488,2.5000,3.8415,,,,SGN
166965073054,,,,0.1220,2.4390,1.7683,-9.5000,-66.3125,-3.9375,SGN
166965073055,0.4148,-0.2855,1.9585,-0.0610,-1.0366,2.9878,,,,SGN
166965073056,0.4189,-0.2725,1.9517,0.6098,1.1585,0.2439,,,,SGN
166965073057,0.3972,-0.2651,1.9832,0.4268,0.6707,2.8659,,,,SGN
166965073058,0.4360,-0.2441,1.9768,1.6159,4.1463,1.2500,,,,SGN
166965073059,0.4917,-0.2234,2.0017,-0.7927,8.5976,3.9024,,,,SGN
166965073061,0.5051,-0.1867,2.0556,-1.4939,11.4024,4.3598,,,,SGN
166965073062,0.4277,-0.1306,2.0974,-3.7195,-0.1829,4.5732,,,,SGN
166965073063,0.4541,-0.1931,2.0688,-5.1829,-6.7683,6.6463,,,,SGN
166965073064,0.4954,-0.2632,1.9966,-5.2439,-8.4756,6.2805,-9.8750,-66.6875,-3.9375,SGN
166965073065,0.4868,-0.2698,1.9084,-4.8171,-8.4146,7.1951,,,,SGN
166965073066,0.4851,-0.2708,1.8611,-4.4512,-11.3415,9.3902,,,,SGN
166965073067,0.5056,-0.2329,1.8926,-4.4512,-15.2439,9.7561,,,,SGN
166965073068,0.5425,-0.1838,1.9177,-5.4878,-14.6341,8.4146,,,,SGN
166965073069,0.5979,-0.1748,1.9146,-5.9146,-14.6951,8.9634,,,,SGN
166965073070,0.5918,-0.1880,1.8960,-6.5244,-14.6341,9.6951,,,,SGN
166965073071,0.5576,-0.1936,1.8960,-8.0488,-16.8902,9.5122,,,,SGN
166965073072,0.5276,-0.1946,1.8892,-9.4512,-21.0366,9.8780,,,,SGN
166965073073,0.5112,-0.2288,1.8455,-10.1829,-23.5976,8.5976,,,,SGN
166965073074,,,,,,,-10.2500,-67.8125,-5.0625,SGN
166965073075,0.5056,-0.2717,1.8223,-10.3659,-24.6951,7.6220,,,,SGN
166965073076,0.4141,-0.3271,1.7874,-9.8476,-26.5244,6.4024,,,,SGN
166965073077,0.3477,-0.3647,1.7922,-9.5122,-26.7683,5.6098,,,,SGN
166965073078,0.3552,-0.3843,1.8611,-9.5122,-24.5732,3.9634,,,,SGN
166965073079,0.3960,-0.3835,1.9243,-10.0000,-22.4390,2.0732,,,,SGN
166965073080,0.4348,-0.3713,1.9348,-10.4878,-20.1829,1.0366,,,,SGN
166965073081,0.4141,-0.3652,1.9189,-10.6707,-19.3293,-0.9756,,,,SGN
166965073082,0.4019,-0.3708,1.9075,-11.2195,-21.1585,-3.1098,,,,SGN
166965073083,0.4243,-0.3770,1.8977,-10.9756,-23.7805,-3.6585,,,,SGN
166965073084,0.4153,-0.3875,1.8621,-10.1220,-24.6951,-4.7561,,,,SGN
166965073085,0.4021,-0.3931,1.8525,-9.8171,-24.2073,-5.7317,-11.6875,-66.3125,-5.8750,SGN
166965073086,0.3831,-0.4026,1.8875,-9.8171,-22.6829,-7.1951,,,,SGN
166965073087,0.3779,-0.3989,1.9163,-10.1829,-20.8537,-9.2683,,,,SGN
166965073088,0.3813,-0.3894,1.9341,-10.9146,-19.6951,-10.9756,,,,SGN
166965073089,0.3889,-0.3811,1.9517,-11.2195,-19.1463,-13.2317,,,,SGN
166965073090,0.4175,-0.3918,1.9617,-11.6463,-19.2073,-14.6951,,,,SGN
166965073091,0.4670,-0.4153,1.9497,-11.0366,-20.6098,-14.5732,,,,SGN
166965073092,0.4951,-0.4197,1.9277,-10.4878,-22.6220,-14.2683,,,,SGN
166965073093,0.5168,-0.4048,1.9441,-10.2439,-22.7439,-14.3902,,,,SGN
166965073094,0.5498,-0.3911,1.9580,-10.6098,-22.4390,-13.4146,,,,SGN
166965073095,,,,,,,-13.1875,-67.0625,-5.8750,SGN
166965073096,0.5955,-0.3801,2.0017,-11.6463,-19.5732,-12.4390,,,,SGN
166965073097,0.6211,-0.3787,2.0522,-12.6829,-16.2195,-11.6463,,,,SGN
166965073098,0.6448,-0.3772,2.0791,-14.3293,-14.4512,-11.3415,,,,SGN
166965073100,0.6770,-0.3843,2.0796,-15.4878,-13.4756,-10.6098,,,,SGN
166965073101,0.6863,-0.4009,2.0432,-16.0366,-12.3780,-9.4512,,,,SGN
166965073102,0.6907,-0.4233,1.9717,-15.4878,-11.8293,-9.5122,,,,SGN
166965073103,0.6525,-0.4514,1.8746,-13.6585,-10.8537,-7.7439,,,,SGN
166965073104,0.6394,-0.4473,1.8445,-11.0366,-10.7927,-5.4268,,,,SGN
166965073105,0.6475,-0.4268,1.8796,-8.9634,-8.6585,-4.2683,,,,SGN
166965073106,0.6470,-0.4150,1.9121,-7.4390,-5.4268,-4.2073,-13.8750,-65.6250,-3.5000,SGN
166965073107,0.6418,-0.4050,1.9216,-6.1585,-2.8049,-4.2683,,,,SGN
166965073108,0.6360,-0.3972,1.9241,-4.5122,-1.8293,-3.7805,,,,SGN
166965073109,0.6366,-0.4009,1.9181,-3.0183,-1.7988,-3.6280,,,,SGN
166965073110,0.6499,-0.4006,1.9102,-2.1341,-1.7683,-2.6829,,,,SGN
166965073111,0.6526,-0.4033,1.9268,-1.5854,-1.5854,-1.4634,,,,SGN
166965073112,0.6477,-0.4067,1.9346,-1.3415,-0.6098,-0.4878,,,,SGN
166965073113,0.6362,-0.4121,1.9336,-1.1585,0.0000,-0.1220,,,,SGN
166965073114,0.6238,-0.4163,1.9280,-1.0366,0.1220,0.1829,,,,SGN
166965073115,0.6255,-0.4219,1.9243,-0.9146,0.1220,0.0000,-14.6250,-66.0000,-4.3125,SGN
166965073116,0.6392,-0.4304,1.9058,-0.8537,-0.3659,-0.5488,,,,SGN
166965073118,0.6530,-0.4289,1.8786,-0.0915,-1.8293,-0.6402,,,,SGN
166965073119,0.6599,-0.4204,1.9072,0.4268,-2.8659,-0.2439,,,,SGN
166965073121,0.6885,-0.4185,1.9033,0.7317,-2.6829,0.3659,,,,SGN
166965073122,0.7200,-0.4221,1.8721,0.9756,-0.9146,0.7317,,,,SGN
166965073123,0.7073,-0.4248,1.8708,1.4024,1.4634,1.2195,,,,SGN
166965073124,0.6631,-0.4128,1.8848,1.4634,2.6220,1.5854,,,,SGN
166965073125,0.6353,-0.4041,1.9099,1.2805,2.6220,1.2195,,,,SGN
166965073126,,,,,,,-14.6250,-65.2500,-3.9375,SGN
166965073127,0.6506,-0.4097,1.8961,1.3415,2.2561,0.6707,,,,SGN
166965073128,0.6533,-0.4048,1.8594,1.7073,0.9756,0.8537,,,,SGN
166965073129,0.6492,-0.4033,1.8704,1.3415,0.5488,0.7317,,,,SGN
166965073130,0.6395,-0.4017,1.9051,0.9451,-0.6402,0.7927,,,,SGN
166965073132,0.6377,-0.4124,1.8743,0.6707,-1.4634,0.5488,,,,SGN
166965073133,0.6458,-0.3971,1.8620,-0.4878,-0.7927,0.5488,,,,SGN
166965073135,0.6521,-0.3767,1.9148,-1.8293,0.4878,0.9756,,,,SGN
166965073136,0.6602,-0.3838,1.9238,-2.5000,0.5488,0.7927,-17.1875,-65.2500,-4.6875,SGN
166965073137,0.6560,-0.4116,1.8953,-2.3780,1.2195,0.6707,,,,SGN
166965073138,0.6443,-0.4248,1.8667,-2.6220,0.7317,0.9756,,,,SGN
166965073140,0.6335,-0.4275,1.8665,-2.0122,-0.3049,0.6098,,,,SGN
166965073141,0.6375,-0.4277,1.8855,-2.0122,-1.1585,0.5488,,,,SGN
166965073142,0.6509,-0.4348,1.8918,-2.1951,-0.7927,0.7927,,,,SGN
166965073143,0.6616,-0.4392,1.8923,-1.8902,-0.3659,0.3659,,,,SGN
166965073144,0.6672,-0.4331,1.8958,-1.5244,-0.4268,1.0366,,,,SGN
166965073145,0.6549,-0.4253,1.9050,-0.9451,0.2135,0.4269,,,,SGN
166965073146,0.6355,-0.4094,1.9131,-0.6098,-0.3049,0.6098,,,,SGN
166965073147,,,,,,,-14.6250,-65.6250,-2.7500,SGN
166965073148,0.6345,-0.4129,1.8988,-0.9146,-1.6463,0.8537,,,,SGN
166965073149,0.6633,-0.4211,1.8882,-0.7317,-2.6829,0.6098,,,,SGN
166965073150,0.6655,-0.4272,1.8713,-0.2439,-2.6220,1.0976,,,,SGN
166965073151,0.6778,-0.4136,1.8801,0.4268,-0.5793,0.7622,,,,SGN
166965073152,0.6514,-0.4072,1.9065,0.6098,0.9756,0.5488,,,,SGN
166965073153,0.6362,-0.4126,1.8984,0.6098,-0.1220,1.2195,,,,SGN
166965073154,0.6424,-0.4224,1.8903,0.4268,-1.8902,0.9756,,,,SGN
166965073155,,,,0.4878,-2.7439,1.0366,-16.0625,-65.6250,-3.9375,SGN
166965073156,0.6438,-0.4246,1.8909,,,,,,,SGN
166965073157,0.6514,-0.4309,1.8696,1.1585,-2.1951,1.3415,,,,SGN
166965073158,0.6689,-0.4233,1.8645,1.2805,-1.6463,0.7927,,,,SGN
166965073160,0.6725,-0.4135,1.8885,1.5854,-0.9451,1.3110,,,,SGN
166965073161,0.6545,-0.4192,1.8960,1.2195,-1.0976,1.0366,,,,SGN
166965073162,0.6506,-0.4263,1.8972,1.0976,-2.1951,1.1585,,,,SGN
166965073163,0.6716,-0.4308,1.8664,1.4939,-1.8902,0.7927,,,,SGN
166965073164,,,,2.3171,0.4878,0.7927,,,,SGN
166965073165,0.6816,-0.4199,1.8696,2.3780,2.0732,1.5244,,,,SGN
166965073166,0.6770,-0.4062,1.9011,2.2561,2.6220,2.1341,-15.6875,-65.6250,-2.7500,SGN
166965073167,0.6609,-0.4031,1.9087,2.1341,2.0122,1.5244,,,,SGN
166965073168,0.6365,-0.4119,1.9023,2.0732,1.2195,1.7683,,,,SGN
166965073169,0.6222,-0.4194,1.8811,2.1951,-0.3353,1.4939,,,,SGN
166965073171,0.6626,-0.4058,1.8699,2.4390,-1.7073,1.9512,,,,SGN
166965073172,0.6706,-0.3961,1.9038,1.4939,0.1829,1.2195,,,,SGN
166965073174,0.6675,-0.4167,1.8789,1.4634,-0.7317,1.6463,,,,SGN
166965073175,0.6647,-0.4187,1.8728,1.7988,-0.5487,1.4329,,,,SGN
166965073176,,,,,,,-14.6250,-65.6250,-3.5000,SGN
166965073177,0.6445,-0.4055,1.8857,1.6463,0.1829,1.0366,,,,SGN
166965073178,0.6583,-0.4128,1.8753,1.0061,0.0610,0.3659,,,,SGN
166965073180,0.6726,-0.4136,1.8567,0.6098,1.5854,0.3049,,,,SGN
166965073181,0.6502,-0.3898,1.8927,-0.4573,2.2256,0.1220,,,,SGN
166965073183,0.6375,-0.4004,1.9026,-1.4634,-0.1220,0.4268,,,,SGN
166965073184,0.6493,-0.4115,1.8773,-1.0061,-1.3110,-0.1829,,,,SGN
166965073186,0.6519,-0.4077,1.8655,-1.8902,-0.1829,-0.5488,,,,SGN
166965073187,0.6536,-0.4080,1.8782,-1.9512,-0.4878,-0.7317,-14.2500,-65.2500,-3.9375,SGN
166965073188,0.6858,-0.4099,1.8933,-1.8293,-1.0366,-0.3659,,,,SGN
166965073189,0.6985,-0.4185,1.9094,-1.7683,-0.2439,-0.3659,,,,SGN
166965073190,0.6580,-0.4234,1.8740,-1.5854,0.9756,-0.9146,,,,SGN
166965073192,0.6243,-0.4170,1.8838,-1.1585,0.7927,-0.4878,,,,SGN
166965073193,0.6336,-0.4132,1.8901,-1.3415,-0.5793,-0.8841,,,,SGN
166965073194,0.6533,-0.4204,1.8965,,,,,,,SGN
166965073195,,,,-1.2805,-1.3415,-0.7927,,,,SGN
166965073196,0.6484,-0.4194,1.9019,-0.9756,-1.7683,-0.6098,-13.8750,-66.3125,-3.5000,SGN
166965073197,0.6477,-0.4226,1.9207,-0.4268,-1.7073,-0.9756,,,,SGN
166965073198,0.6536,-0.4307,1.8767,0.3049,-1.4024,-0.9146,,,,SGN
166965073199,0.6616,-0.4134,1.8670,0.6098,-0.1829,-0.5793,,,,SGN
166965073200,0.6616,-0.3972,1.9099,0.0000,0.9146,-0.1829,,,,SGN
166965073202,0.6523,-0.3958,1.9092,-0.4268,-0.6098,-0.1220,,,,SGN
166965073203,0.6462,-0.4146,1.8723,-0.4878,-1.6463,-0.6707,,,,SGN
166965073204,0.6536,-0.4224,1.8635,-0.1220,-1.9512,-0.5488,,,,SGN
166965073205,0.6683,-0.4224,1.8756,0.3049,-0.1524,-0.8537,,,,SGN
166965073206,,,,,,,-14.6250,-64.5000,-3.1250,SGN
166965073207,0.6702,-0.4236,1.8821,0.2439,-0.3659,-0.2439,,,,SGN
166965073208,0.6603,-0.4299,1.9019,0.2439,-0.8841,-0.4573,,,,SGN
166965073209,0.6516,-0.4341,1.9277,0.7317,-0.7317,-0.1220,,,,SGN
166965073211,0.6597,-0.4382,1.8896,1.0976,0.3659,-0.4878,,,,SGN
166965073212,0.6821,-0.4180,1.8518,1.7683,2.1951,-0.1829,,,,SGN
166965073214,0.6741,-0.3819,1.8942,0.9756,4.7256,0.9756,,,,SGN
166965073215,0.6492,-0.3855,1.9160,0.4268,3.8415,0.9756,,,,SGN
166965073216,0.6401,-0.4146,1.8689,0.8537,2.5000,1.4634,,,,SGN
166965073217,0.6436,-0.4236,1.8359,1.5854,1.5854,1.2195,-13.5000,-64.5000,-3.9375,SGN
166965073218,0.6353,-0.4175,1.8508,1.7073,1.8902,1.1585,,,,SGN
166965073219,0.6338,-0.4165,1.8872,2.1341,0.7927,1.3415,,,,SGN
166965073220,0.6350,-0.4221,1.8999,2.0122,-1.0976,1.1585,,,,SGN
166965073221,0.6414,-0.4268,1.9353,1.9512,-1.4024,0.4878,,,,SGN
166965073223,0.6443,-0.4241,1.9293,0.9451,-0.3659,0.4574,,,,SGN
166965073224,0.6301,-0.4150,1.8999,0.6098,-2.9878,0.9146,,,,SGN
166965073225,0.6331,-0.4143,1.8667,0.4878,-3.6585,0.6098,,,,SGN
166965073226,0.6895,-0.4097,1.8548,0.7318,-1.9817,0.8841,,,,SGN
166965073227,,,,,,,-15.3750,-65.2500,-4.3125,SGN
166965073228,0.6973,-0.4045,1.8655,0.9756,1.4024,0.7317,,,,SGN
166965073229,0.6534,-0.4024,1.8876,0.8232,1.4939,0.9146,,,,SGN
166965073230,0.6458,-0.4026,1.9028,0.1220,0.2439,0.7317,,,,SGN
166965073232,0.6624,-0.4010,1.9001,-0.5488,1.9817,0.9756,,,,SGN
166965073233,0.6370,-0.4131,1.8833,-0.8537,1.0976,0.9146,,,,SGN
166965073234,0.6182,-0.4211,1.8665,,,,,,,SGN
166965073235,0.6313,-0.4197,1.8635,-0.7318,-0.4573,0.4574,,,,SGN
166965073236,0.6570,-0.4160,1.8757,-0.6707,-0.3049,0.5488,,,,SGN
166965073237,,,,,,,-13.5000,-65.6250,-4.3125,SGN
166965073238,0.6480,-0.4184,1.8816,-0.5183,0.1219,0.5488,,,,SGN
166965073239,0.6355,-0.4084,1.9048,-1.1585,-0.9146,0.0000,,,,SGN
166965073240,0.6462,-0.4155,1.8911,-1.0366,-1.3415,-0.2439,,,,SGN
166965073241,0.6599,-0.4224,1.8745,-1.2195,-0.4878,-0.2439,,,,SGN
166965073242,0.6409,-0.4263,1.8716,-0.1220,-0.0610,0.1220,,,,SGN
166965073243,0.6460,-0.4312,1.8733,0.0000,-0.7927,0.6098,,,,SGN
166965073244,0.6611,-0.4280,1.8679,0.5488,-0.9146,0.3659,,,,SGN
166965073245,0.6619,-0.4185,1.8804,0.2439,-0.4878,0.2439,,,,SGN
166965073246,0.6753,-0.4077,1.8962,0.4268,0.2439,1.2805,,,,SGN
166965073247,0.6711,-0.4094,1.8906,0.4878,0.6707,1.2195,-16.0625,-64.8750,-4.3125,SGN
166965073248,0.6558,-0.4092,1.8782,0.4878,1.0976,0.2439,,,,SGN
166965073249,0.6360,-0.4099,1.8774,0.6098,1.4024,0.2439,,,,SGN
166965073250,0.6187,-0.4033,1.8657,0.7927,1.5854,0.0610,,,,SGN
166965073251,0.6169,-0.3989,1.8667,1.0366,1.1585,-0.3049,,,,SGN
166965073252,0.6426,-0.4043,1.8745,1.3415,0.4878,-0.1220,,,,SGN
166965073253,0.6470,-0.3967,1.8865,0.8537,0.3049,-0.2439,,,,SGN
166965073254,0.6389,-0.3965,1.9053,0.5488,-0.0610,0.0610,,,,SGN
166965073255,0.6348,-0.3953,1.9148,0.3659,-1.5244,-0.0610,,,,SGN
166965073256,0.6348,-0.4082,1.9062,0.6707,-2.1341,-0.3049,,,,SGN
166965073257,,,,,,,-14.2500,-66.0000,-4.6875,SGN
166965073258,0.6516,-0.4075,1.8965,0.4268,-2.6220,-0.5488,,,,SGN
166965073259,0.6962,-0.4061,1.8960,1.8598,-1.0671,0.3963,,,,SGN
166965073260,0.7078,-0.4192,1.8916,3.2317,0.7317,1.5854,,,,SGN
166965073261,0.6582,-0.4299,1.8833,4.0244,1.6463,1.1585,,,,SGN
166965073262,0.6335,-0.4485,1.8821,4.5122,0.9146,1.4024,,,,SGN
166965073263,0.6406,-0.4529,1.8948,4.6951,0.1829,1.5854,,,,SGN
166965073264,0.6445,-0.4414,1.9104,3.7805,-0.6707,1.5244,,,,SGN
166965073265,0.6436,-0.4277,1.9297,3.5366,-1.7683,1.7683,,,,SGN
166965073266,0.6475,-0.4277,1.9209,3.5366,-2.8049,2.3171,,,,SGN
166965073267,0.6289,-0.4163,1.9045,3.1098,-2.3780,1.7683,,,,SGN
166965073268,0.6211,-0.4062,1.8855,3.3537,-3.3537,2.0122,-14.2500,-64.8750,-2.7500,SGN
166965073270,0.6211,-0.4097,1.8806,3.2927,-3.6585,1.8293,,,,SGN
166965073271,0.6680,-0.3967,1.8757,3.0183,-5.0305,1.9207,,,,SGN
166965073272,0.6790,-0.3843,1.9092,2.6829,-3.4756,2.2561,,,,SGN
166965073273,0.6802,-0.4070,1.8826,2.9878,-2.9268,2.0122,,,,SGN
166965073275,0.6804,-0.4077,1.8735,2.8049,-2.1951,1.7073,,,,SGN
166965073276,0.6697,-0.3950,1.8914,2.4390,-2.3171,1.9512,,,,SGN
166965073277,0.6498,-0.3866,1.8861,2.0732,-1.3415,1.3720,,,,SGN
166965073278,,,,,,,-13.8750,-66.3125,-3.9375,SGN
166965073279,0.6714,-0.3992,1.8562,1.9512,-0.9756,1.7683,,,,SGN
166965073280,0.6905,-0.3699,1.8867,0.8232,0.4269,1.3720,,,,SGN
166965073281,0.6531,-0.3750,1.8994,0.2439,0.4878,1.0976,,,,SGN
166965073283,0.6494,-0.4053,1.8872,,,,,,,SGN
166965073284,0.6743,-0.4082,1.8699,-0.0610,-0.2439,1.3415,,,,SGN
166965073285,0.6599,-0.3931,1.8716,-0.0610,-0.9146,1.5854,,,,SGN
166965073286,0.6437,-0.3892,1.8853,-0.3963,-0.1220,0.5793,,,,SGN
166965073287,0.6787,-0.4001,1.8582,-0.8537,-0.9146,0.3659,,,,SGN
166965073288,,,,-1.3415,-1.2805,0.5488,-14.6250,-66.6875,-4.3125,SGN
166965073289,0.6963,-0.4011,1.8545,-1.3415,0.3049,0.3659,,,,SGN
166965073291,0.6929,-0.3960,1.8584,-2.0122,2.7439,0.0610,,,,SGN
166965073292,0.6538,-0.3929,1.8819,-2.5000,3.4146,-0.2134,,,,SGN
166965073293,0.6206,-0.3926,1.9182,-3.3537,0.0610,-0.7927,,,,SGN
166965073294,0.6562,-0.4150,1.8604,-3.1707,-1.2805,-1.1585,,,,SGN
166965073295,0.6753,-0.4207,1.8411,-2.7439,0.6098,-2.3171,,,,SGN
166965073296,0.6763,-0.4119,1.8535,-2.4390,2.5000,-1.5854,,,,SGN
166965073297,0.6729,-0.4021,1.8799,-2.0122,2.5610,-1.6463,,,,SGN
166965073298,0.6743,-0.4050,1.8894,-2.1951,2.3171,-1.8902,-13.5000,-65.2500,-3.9375,SGN
166965073299,0.6953,-0.4128,1.8806,-1.9512,3.5976,-2.3780,,,,SGN
166965073300,0.6831,-0.4080,1.8733,-1.9512,5.6707,-1.8293,,,,SGN
166965073301,0.6436,-0.3969,1.8916,-2.0427,6.3720,-2.0427,,,,SGN
166965073302,0.6091,-0.3965,1.9011,-2.0732,4.5732,-2.3171,,,,SGN
166965073303,0.6064,-0.4026,1.8928,-1.7073,3.3537,-2.3780,,,,SGN
166965073304,0.6414,-0.4099,1.8816,-1.3415,2.4390,-2.3780,,,,SGN
166965073305,0.6716,-0.4102,1.8921,-0.8537,3.4146,-2.0122,,,,SGN
166965073306,0.6658,-0.4102,1.9109,-0.5488,4.4512,-1.8902,,,,SGN
166965073307,0.6550,-0.4077,1.9141,-0.6707,3.7805,-1.6463,,,,SGN
166965073308,0.6438,-0.4187,1.9065,-0.1829,2.6829,-1.4024,-15.0000,-64.8750,-3.1250,SGN
166965073310,0.6229,-0.4269,1.9003,0.0915,1.8902,-0.8841,,,,SGN
166965073311,0.6162,-0.4231,1.8999,0.4268,-0.3659,-0.6707,,,,SGN
166965073312,0.6199,-0.4116,1.9124,0.5488,-1.4634,-0.7317,,,,SGN
166965073313,0.6304,-0.4163,1.9204,0.7317,-1.7683,-0.3659,,,,SGN
166965073314,0.6411,-0.4192,1.9055,0.9756,-1.9512,-0.5488,,,,SGN
166965073315,0.6472,-0.4177,1.8833,1.0366,-2.0122,-0.1829,,,,SGN
166965073316,0.6626,-0.4141,1.8760,1.2195,-2.1951,-0.3049,,,,SGN
166965073317,0.6648,-0.4055,1.8899,1.0976,-0.9756,0.2439,,,,SGN
166965073318,0.6536,-0.4016,1.8733,1.2805,-0.4268,0.0000,,,,SGN
166965073319,0.6501,-0.3928,1.8804,0.9146,-0.1220,0.0000,-15.0000,-66.3125,-2.3125,SGN
166965073320,0.6406,-0.3862,1.8992,0.3659,-0.1220,-0.1220,,,,SGN
166965073321,0.6360,-0.3896,1.9092,-0.1220,-0.7317,0.0000,,,,SGN
166965073322,0.6389,-0.4042,1.8851,0.0000,-0.8537,-0.1220,,,,SGN
166965073323,,,,-0.3049,-0.6707,-0.3659,,,,SGN
166965073324,0.6487,-0.4050,1.8599,0.0610,-0.3659,0.0000,,,,SGN
166965073325,0.6622,-0.3979,1.8916,-0.4269,0.2439,-0.0610,,,,SGN
166965073327,0.6555,-0.4080,1.9062,-0.6707,-0.3659,0.0610,,,,SGN
166965073328,0.6499,-0.4180,1.8823,-0.5488,-0.9146,-0.4878,-14.2500,-64.1250,-4.3125,SGN
166965073329,0.6458,-0.4172,1.8689,-0.5488,-1.3415,-0.6098,,,,SGN
166965073330,0.6440,-0.4119,1.8875,-0.5488,-0.8537,-0.8537,,,,SGN
166965073331,0.6552,-0.4087,1.9051,-0.6098,-0.5793,-0.5488,,,,SGN
166965073333,0.6470,-0.4153,1.8818,-0.4268,-0.8537,-0.6707,,,,SGN
166965073334,0.6523,-0.4111,1.8916,-0.3049,-0.2135,-0.6707,,,,SGN
166965073337,0.6510,-0.4078,1.8970,0.3659,-0.8537,-0.0610,,,,SGN
166965073338,0.6516,-0.4136,1.8936,0.8537,-1.4634,-0.4268,,,,SGN
166965073339,,,,,,,-14.2500,-66.3125,-5.5000,SGN
166965073340,0.6470,-0.4098,1.8810,1.7988,-1.1585,-0.9146,,,,SGN
166965073341,0.6467,-0.4072,1.8906,2.0122,-0.8537,-0.6098,,,,SGN
166965073342,0.6746,-0.4026,1.8665,1.8902,0.3049,-0.9756,,,,SGN
166965073343,0.7012,-0.3987,1.8669,2.0122,3.7805,-0.1829,,,,SGN
166965073344,0.6804,-0.3867,1.9016,1.3415,6.5244,0.8537,,,,SGN
166965073346,0.6021,-0.4009,1.9345,0.8841,2.9878,0.1220,,,,SGN
166965073347,0.6023,-0.4165,1.8774,0.7927,-1.4024,0.1220,,,,SGN
166965073348,0.6318,-0.4160,1.8528,1.8902,-1.0366,-0.0610,,,,SGN
166965073349,0.6536,-0.4097,1.8618,2.4390,0.2439,-0.4878,-13.8750,-65.2500,-3.5000,SGN
166965073350,0.6614,-0.4011,1.8931,2.3780,0.7317,0.0000,,,,SGN
166965073351,0.6616,-0.3958,1.9033,2.2561,0.4268,0.0610,,,,SGN
166965073352,0.6581,-0.4012,1.9074,1.7683,0.6098,0.0915,,,,SGN
166965073354,0.6392,-0.3989,1.9043,1.1585,0.7317,-0.4878,,,,SGN
166965073355,0.6481,-0.3955,1.8760,0.5487,-0.0305,-0.1525,,,,SGN
166965073357,0.6548,-0.3896,1.8752,0.3049,0.6098,-0.2439,,,,SGN
166965073358,0.6537,-0.3967,1.8981,0.0000,0.8537,-0.7622,,,,SGN
166965073359,,,,,,,-13.1875,-65.6250,-5.8750,SGN
166965073360,0.6719,-0.4180,1.8689,0.9756,1.6463,-0.6707,,,,SGN
166965073361,0.6847,-0.4000,1.8673,0.9146,4.8171,-0.7012,,,,SGN
166965073363,0.6267,-0.3660,1.9270,-0.0610,5.3659,-0.3659,,,,SGN
166965073364,0.5947,-0.3787,1.9326,-0.7927,2.6829,-0.9756,,,,SGN
166965073365,0.6172,-0.4009,1.9119,-0.6098,0.9146,-0.6098,,,,SGN
166965073366,0.6279,-0.4099,1.8704,0.0000,1.2805,-0.7317,,,,SGN
166965073367,0.6290,-0.3945,1.8697,0.1525,2.0122,-1.0061,,,,SGN
166965073368,0.6682,-0.4009,1.8987,,,,,,,SGN
166965073369,,,,0.6098,1.8293,-0.3049,-13.1875,-66.3125,-3.5000,SGN
166965073370,0.6688,-0.3984,1.9223,0.7317,2.2561,-0.1829,,,,SGN
166965073371,0.5847,-0.3997,1.9084,0.7317,3.4146,0.0610,,,,SGN
166965073372,,,,0.3049,1.5854,-1.0366,,,,SGN
166965073373,0.5698,-0.4033,1.9007,0.0915,-2.7134,-0.8537,,,,SGN
166965073374,0.6548,-0.4026,1.8892,0.2439,-2.8049,-0.6707,,,,SGN
166965073376,0.6760,-0.4013,1.8926,0.5183,-0.1220,-0.4878,,,,SGN
166965073377,0.6523,-0.4043,1.8882,1.0366,0.9146,-0.2439,,,,SGN
166965073379,0.6548,-0.4070,1.8782,1.0366,0.7317,0.3659,-13.8750,-65.6250,-3.1250,SGN
166965073380,0.6638,-0.4028,1.8770,1.2805,2.6220,0.3049,,,,SGN
166965073381,0.6455,-0.3884,1.8984,1.0976,3.7195,0.4268,,,,SGN
166965073382,0.6085,-0.3819,1.9100,0.7012,1.3110,0.0305,,,,SGN
166965073383,0.5774,-0.3931,1.9053,0.4878,-2.3780,0.1829,,,,SGN
166965073385,0.5998,-0.3934,1.9129,0.4573,-5.9756,0.3354,,,,SGN
166965073386,0.6370,-0.3997,1.9158,0.0000,-7.3780,0.0610,,,,SGN
166965073388,0.6572,-0.4134,1.8787,0.3354,-5.1220,0.3963,,,,SGN
166965073389,,,,,,,-13.5000,-66.6875,-2.7500,SGN
166965073390,0.6372,-0.4084,1.8384,0.7927,-2.0122,0.5488,,,,SGN
166965073391,0.6782,-0.3789,1.9415,0.4878,-1.6768,1.5549,,,,SGN
166965073392,0.6545,-0.3911,1.8833,0.6098,-0.5488,1.4634,,,,SGN
166965073394,0.6141,-0.3814,1.9189,0.7317,-1.4024,2.8963,,,,SGN
166965073395,0.6128,-0.3821,1.9524,0.7927,-3.1707,3.4146,,,,SGN
166965073397,0.6116,-0.3884,1.9497,-0.0610,-4.2683,4.1463,,,,SGN
166965073398,0.6394,-0.4167,1.9065,-0.3049,-6.4024,3.1707,,,,SGN
166965073399,0.6682,-0.4453,1.8567,-0.6707,-6.4024,1.9512,,,,SGN
166965073400,0.7275,-0.4385,1.8398,-0.8537,-4.8171,2.1951,-14.2500,-65.6250,-4.6875,SGN
166965073401,0.7090,-0.3928,1.8755,-1.3415,-1.9512,2.0732,,,,SGN
166965073402,0.6658,-0.3684,1.9023,-1.8902,-0.3049,1.5244,,,,SGN
166965073403,0.6430,-0.3799,1.9281,-1.6463,-0.8232,2.0427,,,,SGN
166965073404,0.5671,-0.3872,1.8826,-1.6463,-3.1707,1.0976,,,,SGN
166965073406,0.6099,-0.4155,1.8236,-0.5488,-5.3354,0.9451,,,,SGN
166965073407,0.7383,-0.4092,1.8445,0.6098,-4.4512,0.9756,,,,SGN
166965073409,0.7406,-0.3973,1.8897,0.6402,0.7317,0.5183,,,,SGN
166965073410,,,,,,,-14.2500,-66.0000,-4.6875,SGN
166965073411,0.6619,-0.3965,1.8916,-0.2439,2.0732,0.2439,,,,SGN
166965073412,0.6087,-0.4038,1.8543,0.0610,-0.5488,-1.0976,,,,SGN
166965073413,0.6245,-0.3794,1.8540,0.3659,-1.0976,-0.9756,,,,SGN
166965073414,0.6611,-0.3835,1.8508,0.5488,-0.8537,-0.7927,,,,SGN
166965073415,0.6831,-0.4014,1.8616,0.7317,0.4878,-0.1220,,,,SGN
166965073416,0.6846,-0.4036,1.8735,,,,,,,SGN
166965073417,0.6709,-0.4019,1.8850,1.0976,1.2195,-1.0366,,,,SGN
166965073418,0.6667,-0.4065,1.8770,1.0061,0.7317,-1.0061,,,,SGN
166965073419,0.6462,-0.3945,1.8718,0.9146,-0.0610,-1.9512,,,,SGN
166965073420,,,,,,,-14.6250,-65.2500,-5.0625,SGN
166965073421,0.7022,-0.4083,1.8255,1.6768,2.3171,-2.4085,,,,SGN
166965073422,0.7539,-0.3948,1.8499,2.5000,9.3902,-1.2805,,,,SGN
166965073423,0.6836,-0.3577,1.8860,2.6829,12.9268,-2.5610,,,,SGN
166965073424,0.6177,-0.3264,1.9155,2.0732,12.5610,-2.2561,,,,SGN
166965073426,0.6377,-0.3459,1.9399,2.0122,7.9878,-1.0976,,,,SGN
166965073427,0.5684,-0.3583,1.9673,1.1890,6.3415,-2.2866,,,,SGN
166965073428,0.5459,-0.3857,1.9243,0.7927,1.3415,-1.7683,,,,SGN
166965073429,0.5830,-0.4077,1.9062,1.0366,-1.6463,-1.0366,,,,SGN
166965073430,0.6565,-0.4229,1.8948,1.3415,-2.5610,-0.7927,-16.0625,-66.3125,-3.9375,SGN
166965073431,0.7043,-0.4341,1.9114,1.7683,-0.2439,0.3049,,,,SGN
166965073432,0.7114,-0.4451,1.9219,2.3171,2.0122,0.7317,,,,SGN
166965073433,0.7031,-0.4575,1.9136,3.4756,2.8659,0.8537,,,,SGN
166965073434,0.6731,-0.4583,1.9089,4.3293,2.7439,2.2561,,,,SGN
166965073435,0.6306,-0.4534,1.9260,6.2805,0.3659,5.4878,,,,SGN
166965073436,0.5796,-0.4355,1.9382,5.7927,-1.8902,5.4878,,,,SGN
166965073437,0.6123,-0.3875,2.0010,4.8171,-5.6098,7.6220,,,,SGN
166965073438,0.6362,-0.3831,1.9824,3.5366,-6.7683,7.9878,,,,SGN
166965073439,0.5723,-0.4082,1.9653,3.1098,-4.4512,5.2439,,,,SGN
166965073440,,,,,,,-14.2500,-66.3125,-3.9375,SGN
166965073441,0.5498,-0.4258,1.9182,3.0488,-6.3415,4.3902,,,,SGN
166965073442,0.6360,-0.4145,1.8767,3.2317,-7.9573,5.2134,,,,SGN
166965073443,0.7368,-0.3845,1.8442,3.2317,-0.5488,5.0610,,,,SGN
166965073444,0.7744,-0.3672,1.8286,4.0244,3.8415,4.7561,,,,SGN
166965073445,0.6960,-0.3440,1.8618,3.4146,5.3049,5.0000,,,,SGN
166965073446,0.6128,-0.3301,1.8745,2.8659,3.7195,3.6585,,,,SGN
166965073447,0.5947,-0.3259,1.8931,2.1341,1.0976,3.3537,,,,SGN
166965073448,0.5654,-0.3157,1.8892,0.8537,-0.9146,2.2561,,,,SGN
166965073449,0.5737,-0.3284,1.8665,0.7317,-3.0488,1.4024,,,,SGN
166965073450,0.5977,-0.3423,1.8538,0.5488,-4.3902,1.2805,,,,SGN
166965073451,0.6292,-0.3545,1.8672,0.8537,-5.0000,0.9756,-14.2500,-65.6250,-4.6875,SGN
166965073452,0.6624,-0.3667,1.8921,0.5488,-4.1463,1.2195,,,,SGN
166965073453,0.7024,-0.3792,1.8894,0.0610,-2.9878,1.5244,,,,SGN
166965073454,0.7385,-0.3926,1.9336,0.5488,-0.7317,2.1341,,,,SGN
166965073455,0.7212,-0.3943,1.9644,-0.9146,2.1341,2.6220,,,,SGN
166965073456,0.6770,-0.4275,1.9529,-0.4268,4.8780,2.2561,,,,SGN
166965073457,0.6360,-0.4492,1.9426,,,,,,,SGN
166965073458,0.6101,-0.4485,1.9199,-0.4878,5.5488,0.7927,,,,SGN
166965073460,0.6202,-0.4343,1.8839,-0.6402,2.2561,1.2500,,,,SGN
166965073461,,,,-0.4878,1.5244,1.3415,-13.8750,-66.6875,-4.6875,SGN
166965073462,0.6638,-0.3979,1.8809,,,,,,,SGN
166965073463,0.6492,-0.3765,1.8572,0.7622,3.6280,1.9817,,,,SGN
166965073464,0.6589,-0.3586,1.8899,1.4024,4.8171,2.1951,,,,SGN
166965073465,0.6472,-0.3333,1.9136,2.0122,3.5976,3.2927,,,,SGN
166965073466,0.6484,-0.3313,1.9346,1.6159,3.2622,3.8415,,,,SGN
166965073467,0.6555,-0.3521,1.9451,1.6463,5.6707,3.9634,,,,SGN
166965073468,0.6394,-0.3765,1.9453,1.6463,5.6098,4.8780,,,,SGN
166965073469,0.6194,-0.3845,1.9392,1.3415,4.5732,5.4268,,,,SGN
166965073470,0.6184,-0.3960,1.9082,0.7927,5.1829,5.2439,,,,SGN
166965073471,,,,,,,-13.1875,-66.0000,-3.9375,SGN
166965073472,0.6240,-0.3895,1.8888,1.1280,6.0061,4.5732,,,,SGN
166965073473,0.6277,-0.3674,1.8857,0.7317,5.1220,4.3902,,,,SGN
166965073474,0.6125,-0.3579,1.8770,0.5488,5.1829,3.8415,,,,SGN
166965073475,0.6282,-0.3674,1.8669,0.7927,4.6341,3.3537,,,,SGN
166965073476,0.6155,-0.3657,1.8845,0.9756,3.8415,3.5366,,,,SGN
166965073477,0.5898,-0.3677,1.8774,0.9146,1.8293,3.6585,,,,SGN
166965073478,0.5964,-0.3865,1.8530,1.6463,0.6707,2.1341,,,,SGN
166965073480,0.5942,-0.3779,1.8376,1.2805,0.7927,1.1585,,,,SGN
166965073481,0.5881,-0.3738,1.8408,1.7073,0.9146,1.2805,-13.5000,-67.0625,-4.6875,SGN
166965073482,0.5791,-0.3867,1.8296,2.0122,-0.8537,0.3659,,,,SGN
166965073483,0.5476,-0.3840,1.8044,2.3171,-3.5976,-0.5488,,,,SGN
166965073484,0.5428,-0.3530,1.8420,2.5305,-6.7378,-0.7927,,,,SGN
166965073485,0.6072,-0.3394,1.8899,2.1341,-6.8902,-0.7927,,,,SGN
166965073486,0.6470,-0.3413,1.9155,2.1341,-3.4756,-0.9756,,,,SGN
166965073487,0.6570,-0.3440,1.9316,,,,,,,SGN
166965073488,0.6633,-0.3428,1.9438,1.7683,-0.4268,-1.3415,,,,SGN
166965073489,0.6702,-0.3430,1.9690,1.4634,-0.1220,-0.9756,,,,SGN
166965073490,0.7131,-0.3508,1.9756,0.5183,0.7926,-0.3049,-15.0000,-66.0000,-5.0625,SGN
166965073491,0.7039,-0.3870,1.9524,,,,,,,SGN
166965073492,0.6428,-0.4277,1.9172,0.2439,0.7927,0.1220,,,,SGN
166965073493,0.5935,-0.4202,1.8994,-0.7317,-0.7927,-0.0915,,,,SGN
166965073494,,,,-0.8537,-0.6098,0.5488,,,,SGN
166965073495,0.5691,-0.4312,1.8833,-0.3049,0.0610,0.3049,,,,SGN
166965073496,0.6162,-0.4338,1.9285,0.1220,0.7317,-0.8537,,,,SGN
166965073497,0.6775,-0.3916,1.9070,0.0610,-1.2195,-0.5488,,,,SGN
166965073499,0.5951,-0.3711,1.8487,1.9207,-0.3963,-2.6524,,,,SGN
166965073500,0.5916,-0.3579,1.7949,3.1707,-1.8902,-2.2561,,,,SGN
166965073501,0.5735,-0.3064,1.8572,3.2317,0.1220,-0.2439,,,,SGN
166965073502,0.6042,-0.2717,1.9783,1.6463,0.6707,0.5488,-13.5000,-67.0625,-5.0625,SGN
166965073503,0.6338,-0.2974,2.0649,0.1829,1.7683,0.3049,,,,SGN
166965073504,0.6873,-0.3574,1.9924,0.3049,1.3415,0.9756,,,,SGN
166965073505,0.6215,-0.3873,1.8617,0.8841,1.2500,-0.4878,,,,SGN
166965073507,0.5767,-0.3970,1.8315,2.1951,0.3659,0.1220,,,,SGN
166965073508,0.6492,-0.3835,1.8886,1.3415,-0.9756,0.7926,,,,SGN
166965073511,0.6795,-0.3950,1.9657,0.0000,-0.5183,0.9146,,,,SGN
166965073512,,,,,,,-13.1875,-66.6875,-5.0625,SGN
166965073513,0.6284,-0.4077,1.9058,-0.3659,0.3659,1.0366,,,,SGN
166965073514,0.5753,-0.3692,1.8879,-1.4329,0.1220,0.9756,,,,SGN
166965073515,0.6118,-0.3525,1.9006,-2.0122,-2.4390,1.3415,,,,SGN
166965073516,0.6206,-0.3657,1.8875,-2.1951,-3.1707,0.9146,,,,SGN
166965073517,0.6022,-0.3711,1.9213,-2.2256,-3.4756,0.0610,,,,SGN
166965073520,0.6279,-0.3720,1.8993,-2.6829,-2.6524,-0.0610,,,,SGN
166965073521,0.6780,-0.3813,1.8645,-1.7073,-0.7317,0.9146,,,,SGN
166965073522,,,,,,,-13.8750,-66.6875,-4.3125,SGN
166965073523,0.6623,-0.3786,1.8830,-0.9451,0.1524,0.3049,,,,SGN
166965073524,0.6431,-0.3838,1.9211,-1.0976,1.7073,0.3659,,,,SGN
166965073525,0.6011,-0.3784,1.9189,-1.4024,1.5854,-0.7927,,,,SGN
166965073526,0.5672,-0.3701,1.9284,-1.3720,-1.8598,-0.4573,,,,SGN
166965073528,0.5999,-0.3684,1.9214,-1.9512,-3.3537,-0.0610,,,,SGN
166965073529,0.6321,-0.3755,1.9022,-1.3415,-2.3171,-0.3049,,,,SGN
166965073531,0.6558,-0.3748,1.8770,-0.5488,-1.0366,-0.0610,,,,SGN
166965073532,0.6404,-0.3796,1.8792,0.0610,-0.4268,0.3659,-16.0625,-66.3125,-4.6875,SGN
166965073533,0.6375,-0.3855,1.8887,0.1220,0.3659,0.8537,,,,SGN
166965073534,0.6467,-0.3877,1.8801,0.8537,1.1585,1.4024,,,,SGN
166965073535,0.6276,-0.3838,1.9119,-0.3963,1.7683,-0.2743,,,,SGN
166965073537,0.6482,-0.3962,1.9031,-0.7317,0.6098,0.6098,,,,SGN
166965073538,0.6155,-0.4058,1.8628,-0.4879,-0.6098,-0.3354,,,,SGN
166965073540,0.5798,-0.4065,1.8394,-0.0610,-4.8780,0.4878,,,,SGN
166965073541,0.6076,-0.3754,1.8486,0.4573,-6.8598,0.6098,,,,SGN
166965073542,,,,,,,-13.1875,-66.0000,-5.0625,SGN
166965073543,0.6648,-0.3442,1.8496,0.5488,-2.5610,-0.3659,,,,SGN
166965073544,0.6753,-0.3331,1.8851,0.5183,2.8354,0.3963,,,,SGN
166965073545,0.6748,-0.3264,1.9143,,,,,,,SGN
166965073546,,,,0.4878,8.2317,-0.8537,,,,SGN
166965073547,0.6873,-0.3385,1.9007,1.5854,12.5305,-0.7012,,,,SGN
166965073549,0.6511,-0.3508,1.8865,2.5000,15.1220,-1.9512,,,,SGN
166965073550,0.5943,-0.3612,1.9152,2.3780,14.8780,-1.8902,,,,SGN
166965073551,0.5840,-0.3696,1.9290,2.6829,13.3537,-2.2561,,,,SGN
166965073552,,,,3.0488,10.9146,-3.4146,-15.3750,-67.0625,-3.5000,SGN
166965073553,0.5751,-0.3676,1.9502,2.3780,8.9634,-4.2073,,,,SGN
166965073554,0.5562,-0.3721,1.9468,1.9512,7.3171,-3.8415,,,,SGN
166965073555,,,,1.6463,4.6951,-4.9390,,,,SGN
166965073556,0.5516,-0.3786,1.9603,1.9512,1.5854,-4.6646,,,,SGN
166965073557,0.5974,-0.3806,1.9358,1.9512,0.4268,-4.3902,,,,SGN
166965073559,0.6389,-0.4043,1.9203,2.8049,0.8537,-3.4756,,,,SGN
166965073560,0.6113,-0.4314,1.9128,4.0244,3.1707,-2.6829,,,,SGN
166965073562,0.5837,-0.4429,1.8950,4.5732,2.3780,-2.5610,-12.8125,-66.3125,-4.3125,SGN
166965073563,0.5989,-0.4246,1.8850,4.7561,1.4634,-2.0122,,,,SGN
166965073564,0.6145,-0.4001,1.9272,4.8780,2.4390,-1.4634,,,,SGN
166965073565,0.5954,-0.3883,1.9458,4.3598,4.4512,-0.5487,,,,SGN
166965073566,0.5630,-0.3972,1.9500,3.7805,2.9268,-0.1220,,,,SGN
166965073568,0.5723,-0.3951,1.9247,3.9024,-0.1524,-0.6098,,,,SGN
166965073569,0.5959,-0.3843,1.8943,4.8171,-0.9756,-0.8537,,,,SGN
166965073571,0.6138,-0.3669,1.8796,4.9390,-1.0366,-0.9146,,,,SGN
166965073572,0.6150,-0.3555,1.9104,5.3049,-0.9146,-0.8537,,,,SGN
166965073573,,,,,,,-13.5000,-66.0000,-4.6875,SGN
166965073574,0.5942,-0.3356,1.9190,4.0854,-1.4024,-0.9146,,,,SGN
166965073575,0.5781,-0.3176,1.9534,2.7439,-1.9512,-1.6463,,,,SGN
166965073576,0.5520,-0.3318,1.9497,2.2561,-3.9024,-1.9512,,,,SGN
166965073577,0.5373,-0.3360,1.9295,1.7073,-7.7439,-1.7988,,,,SGN
166965073578,0.5813,-0.3335,1.9072,1.8902,-10.1829,-1.6463,,,,SGN
166965073580,0.6251,-0.3562,1.9097,2.3171,-10.2134,-1.1280,,,,SGN
166965073581,0.6831,-0.3508,1.9390,2.9878,-7.3780,-0.9146,,,,SGN
166965073582,,,,,,,-13.5000,-67.0625,-5.8750,SGN
166965073583,0.6852,-0.3391,1.9442,3.7500,-0.1220,-1.1890,,,,SGN
166965073584,0.5835,-0.3240,1.9399,3.8415,-0.4268,-0.3049,,,,SGN
166965073586,0.5381,-0.3073,1.9349,4.2683,-4.6646,-0.3049,,,,SGN
166965073587,0.5820,-0.3196,1.9380,5.0610,-6.0366,-0.9146,,,,SGN
166965073588,0.6416,-0.3523,1.9280,,,,,,,SGN
166965073589,0.6716,-0.3440,1.9148,6.3415,-5.3963,0.4573,,,,SGN
166965073590,0.6440,-0.3186,1.9348,7.0122,-6.0366,1.0976,,,,SGN
166965073591,0.5854,-0.2976,1.9670,6.8293,-8.0488,1.2195,,,,SGN
166965073592,0.5579,-0.3040,1.9834,6.0366,-7.9878,1.2195,,,,SGN
166965073593,,,,,,,-13.1875,-67.0625,-4.6875,SGN
166965073594,0.6062,-0.3123,1.9236,,,,,,,SGN
166965073595,0.6381,-0.3065,1.8992,5.0610,-4.8476,-0.1830,,,,SGN
166965073596,0.6196,-0.2883,1.8845,4.1463,-1.2195,-0.1829,,,,SGN
166965073597,0.6150,-0.3022,1.8687,4.0854,-1.4634,-1.2805,,,,SGN
166965073598,0.6460,-0.3110,1.8547,4.2683,-3.4756,-1.5854,,,,SGN
166965073599,0.6716,-0.3135,1.8513,4.7561,-5.9146,-0.7317,,,,SGN
166965073600,0.6733,-0.3098,1.8645,4.7561,-5.9146,-0.4878,,,,SGN
166965073601,0.6765,-0.3169,1.8872,4.5122,-4.6951,-0.4878,,,,SGN
166965073603,0.6990,-0.3167,1.8750,3.9024,-2.6829,-0.3659,,,,SGN
166965073604,0.6978,-0.3118,1.8713,3.0488,-0.1220,-0.3659,-13.8750,-67.4375,-5.5000,SGN
166965073605,0.6738,-0.3103,1.8721,2.7439,1.2195,0.0610,,,,SGN
166965073606,0.6448,-0.3179,1.8755,2.3171,1.1585,-0.1829,,,,SGN
166965073607,0.6423,-0.3271,1.8724,2.1341,0.0000,0.3049,,,,SGN
166965073608,0.6455,-0.3245,1.8840,2.0122,-1.4024,0.7927,,,,SGN
166965073609,0.6372,-0.3184,1.8879,2.1951,-1.6463,0.9146,,,,SGN
166965073610,0.6650,-0.3125,1.8879,1.3415,-0.5488,0.5488,,,,SGN
166965073612,0.6877,-0.2957,1.9043,1.0366,0.4268,0.4268,,,,SGN
166965073613,0.6589,-0.2856,1.9163,0.4879,2.9268,-0.4573,-13.5000,-68.5000,-5.0625,SGN
166965073614,0.5957,-0.2812,1.9014,,,,,,,SGN
166965073615,0.5657,-0.2834,1.8921,0.0000,2.5610,-0.6707,,,,SGN
166965073616,0.6176,-0.2899,1.9027,-0.6098,-1.7378,-1.0366,,,,SGN
166965073617,0.6689,-0.3044,1.9087,-0.4878,-1.5244,-0.7317,,,,SGN
166965073618,0.6682,-0.3152,1.8955,0.5488,0.3049,-0.3659,,,,SGN
166965073619,0.6724,-0.3066,1.9009,0.8841,2.3476,-0.7012,,,,SGN
166965073620,0.6606,-0.3025,1.9014,0.7317,5.5488,-1.2195,,,,SGN
166965073621,0.6609,-0.3145,1.8979,0.7317,6.8902,-1.5854,,,,SGN
166965073623,0.6506,-0.3081,1.9224,0.7927,6.2805,-1.2805,,,,SGN
166965073624,,,,,,,-14.2500,-67.8125,-4.3125,SGN
166965073625,0.5984,-0.3136,1.9627,0.5183,3.3841,-1.7378,,,,SGN
166965073627,0.5994,-0.3193,1.9631,,,,,,,SGN
166965073628,0.6196,-0.3256,1.9596,0.4574,-1.3720,-0.9146,,,,SGN
166965073629,0.6265,-0.3320,1.9048,1.2805,-1.0976,-0.2439,,,,SGN
166965073631,0.6338,-0.3123,1.9483,2.5000,2.8963,-0.4268,,,,SGN
166965073632,0.7261,-0.3235,1.8848,2.3171,3.1098,0.4878,,,,SGN
166965073633,0.7693,-0.3357,1.8589,2.1951,5.7317,0.4878,,,,SGN
166965073634,0.7058,-0.3152,1.9038,3.0183,13.9329,0.0915,-13.5000,-68.5000,-6.6875,SGN
166965073635,0.6133,-0.3164,1.9119,,,,,,,SGN
166965073636,0.5703,-0.3059,1.9072,2.5000,14.0854,0.0610,,,,SGN
166965073637,0.5725,-0.2860,1.8748,1.7378,8.8415,-0.2134,,,,SGN
166965073638,0.6821,-0.2935,1.8137,1.6463,5.5488,-1.2805,,,,SGN
166965073639,0.7083,-0.2622,1.8618,2.1951,4.3293,-0.4268,,,,SGN
166965073640,0.5657,-0.2417,1.9373,1.4634,6.3720,-1.2500,,,,SGN
166965073641,0.4771,-0.2288,1.9604,-0.5488,-0.3049,-2.9268,,,,SGN
166965073642,0.4084,-0.2258,1.9761,-2.3780,-6.4024,-3.6585,,,,SGN
166965073643,0.4456,-0.2417,1.9487,-3.8415,-10.6098,-4.0854,-14.2500,-68.5000,-5.5000,SGN
166965073644,0.5706,-0.2566,1.9321,-4.0854,-10.1829,-3.7195,,,,SGN
166965073645,0.6492,-0.2703,1.9163,-3.4756,-5.9756,-4.3902,,,,SGN
166965073646,0.6848,-0.2791,1.8840,-2.9268,-0.7927,-4.2073,,,,SGN
166965073647,0.6953,-0.2932,1.8699,-1.9512,2.5610,-3.6585,,,,SGN
166965073648,0.6660,-0.2964,1.8616,-0.7927,4.7561,-3.1707,,,,SGN
166965073649,0.6328,-0.2810,1.8752,-0.1829,6.4024,-2.8659,,,,SGN
166965073650,0.6230,-0.2742,1.9050,0.4268,7.4390,-3.1707,,,,SGN
166965073651,0.6057,-0.2800,1.9282,0.5488,7.0122,-2.3171,,,,SGN
166965073652,0.5872,-0.2891,1.9290,0.3659,6.5854,-2.0122,,,,SGN
166965073653,0.5796,-0.2920,1.9360,,,,,,,SGN
166965073654,,,,0.4268,6.7683,-1.8293,-13.5000,-67.4375,-5.5000,SGN
166965073655,0.6127,-0.2982,1.9587,0.1220,7.5000,-1.0976,,,,SGN
166965073656,0.6375,-0.3047,1.9419,-0.4268,10.4878,-0.8537,,,,SGN
166965073657,0.6443,-0.3127,1.9509,-0.6707,13.1098,-1.3415,,,,SGN
166965073658,0.6140,-0.2856,1.9824,-1.7073,11.7683,0.7622,,,,SGN
166965073659,0.5798,-0.2971,1.9690,-2.4390,7.0732,1.1585,,,,SGN
166965073660,0.6089,-0.3604,1.9221,-1.7073,3.5976,-0.0610,,,,SGN
166965073661,0.6274,-0.3870,1.8740,-1.8293,1.1585,1.0366,,,,SGN
166965073662,0.6252,-0.3804,1.8530,-1.6463,0.6098,1.0976,,,,SGN
166965073663,0.6340,-0.3464,1.8835,-1.4634,1.7683,0.6098,,,,SGN
166965073664,0.6104,-0.3237,1.8821,-0.0610,5.0000,0.7927,-13.5000,-68.1875,-4.3125,SGN
166965073665,0.5474,-0.2903,1.8765,-0.6707,6.7683,-0.5488,,,,SGN
166965073666,0.4868,-0.2363,2.0466,-4.4512,5.6098,-2.0122,,,,SGN
166965073667,0.4509,-0.2185,2.0745,-6.8293,0.8537,-1.7073,,,,SGN
166965073668,0.5012,-0.2390,1.9236,-7.3171,-3.5976,-2.8659,,,,SGN
166965073669,0.4729,-0.2625,1.8494,-6.5244,-2.5610,-4.5732,,,,SGN
166965073670,0.5376,-0.2854,1.8274,-5.2439,-2.0122,-4.0854,,,,SGN
166965073671,0.6328,-0.2734,1.8696,-4.2683,1.6463,-2.2561,,,,SGN
166965073672,0.6167,-0.2495,1.9434,-3.6585,4.9390,-3.4146,,,,SGN
166965073673,0.5674,-0.2856,1.9683,-3.5366,4.5122,-3.4146,-12.0625,-67.8125,-5.5000,SGN
166965073674,0.5669,-0.3318,1.9561,-3.5976,1.4634,-3.3537,,,,SGN
166965073675,0.5344,-0.3369,1.9729,-3.3537,-0.3049,-3.5976,,,,SGN
166965073676,0.5288,-0.3244,1.9582,-3.7195,-1.7073,-4.0854,,,,SGN
166965073677,,,,-3.2927,-3.1098,-3.6585,,,,SGN
166965073678,0.5725,-0.3213,1.9126,-3.1098,-4.4512,-3.5366,,,,SGN
166965073679,0.6029,-0.3305,1.9120,-2.5610,-4.4512,-2.8049,,,,SGN
166965073681,0.6165,-0.3252,1.9314,-1.8902,-3.4146,-2.5610,,,,SGN
166965073682,0.5843,-0.3163,1.9247,-1.4939,-4.4207,-1.8598,,,,SGN
166965073684,0.5957,-0.3132,1.9299,-1.2805,-3.3537,-1.3415,,,,SGN
166965073685,0.6252,-0.3359,1.8984,-0.2439,-0.6707,-0.4878,-12.4375,-66.6875,-4.6875,SGN
166965073686,0.6748,-0.3430,1.8745,0.6098,2.0122,0.1220,,,,SGN
166965073687,0.6233,-0.3154,1.9163,0.3659,4.6951,0.4268,,,,SGN
166965073688,0.5404,-0.2946,1.9551,-0.1525,3.8720,0.1220,,,,SGN
166965073690,0.5139,-0.3035,1.9639,-0.9756,0.3659,-0.1829,,,,SGN
166965073691,0.5212,-0.3157,1.9324,-0.7927,-1.9512,-0.4878,,,,SGN
166965073692,0.5420,-0.3259,1.9299,-0.9146,-2.9268,-0.8537,,,,SGN
166965073693,0.5640,-0.3313,1.9463,-0.4878,-4.2073,-1.0366,,,,SGN
166965073694,0.5791,-0.3464,1.9285,0.3659,-5.1220,-0.3659,-13.1875,-66.3125,-5.0625,SGN
166965073695,0.5820,-0.3501,1.9067,0.7317,-6.2805,-1.0976,,,,SGN
166965073696,0.6006,-0.3367,1.9055,1.0366,-6.8902,-0.9756,,,,SGN
166965073697,0.6472,-0.3225,1.8900,2.5000,-3.8110,0.3659,,,,SGN
166965073699,0.6021,-0.2651,1.9412,2.0732,3.1098,1.2195,,,,SGN
166965073700,0.5940,-0.2904,2.0059,-0.0610,6.0366,0.2440,,,,SGN
166965073702,0.6704,-0.3467,1.9749,-0.4878,5.4268,0.7927,,,,SGN
166965073703,0.6079,-0.3460,1.9562,-0.9451,4.8171,3.0793,,,,SGN
166965073704,,,,,,,-14.6250,-66.6875,-5.0625,SGN
166965073705,0.5771,-0.3423,1.9014,0.1220,1.5244,1.5854,,,,SGN
166965073706,0.5185,-0.3638,1.8720,2.4085,-2.0122,2.0122,,,,SGN
166965073708,0.4426,-0.3591,1.8643,4.7561,-4.5122,1.2805,,,,SGN
166965073709,0.4933,-0.3008,2.0073,2.3476,-7.8049,0.5793,,,,SGN
166965073711,0.6777,-0.2312,2.0623,-0.6707,-12.0122,2.7439,,,,SGN
166965073712,0.6782,-0.2495,1.9189,0.8537,-7.3171,-0.1829,,,,SGN
166965073714,0.5659,-0.2881,1.8389,1.7073,-2.1951,-0.6098,,,,SGN
166965073715,0.5886,-0.3037,1.7876,5.0000,-0.5488,1.5854,-13.1875,-67.8125,-5.8750,SGN
166965073716,0.6355,-0.2615,1.8396,6.2805,2.6829,2.8049,,,,SGN
166965073717,0.6511,-0.2412,1.9443,6.9512,4.1463,2.9268,,,,SGN
166965073718,0.6295,-0.2949,2.0330,6.7988,3.6890,3.9329,,,,SGN
166965073719,0.5452,-0.3279,2.0239,7.0122,0.2439,4.3293,,,,SGN
166965073720,0.4739,-0.3374,2.0122,7.9268,-4.3902,4.7561,,,,SGN
166965073721,0.3752,-0.3322,2.0349,8.3841,-17.0731,6.0061,,,,SGN
166965073722,0.4456,-0.3076,2.0442,,,,,,,SGN
166965073724,0.6002,-0.2890,2.0199,8.2927,-29.5427,8.3841,,,,SGN
166965073725,,,,6.8902,-27.1341,10.5488,-13.5000,-68.5000,-4.6875,SGN
166965073726,0.7153,-0.2676,2.0703,,,,,,,SGN
166965073727,0.7286,-0.2338,2.1084,4.9390,-24.6341,13.8110,,,,SGN
166965073728,0.6663,-0.2661,2.1401,2.3780,-18.8415,12.8659,,,,SGN
166965073729,,,,0.1220,-14.8171,13.4756,,,,SGN
166965073730,0.7045,-0.2467,2.2084,-3.2927,-11.2805,12.2866,,,,SGN
166965073731,0.7285,-0.2053,2.2341,-9.3293,0.3049,11.6463,,,,SGN
166965073733,0.5687,-0.3543,2.1787,-12.4695,3.0183,10.3354,,,,SGN
166965073734,0.5288,-0.3662,2.1316,-15.6098,0.1220,8.3537,,,,SGN
166965073735,,,,,,,-14.6250,-67.4375,-5.5000,SGN
166965073736,0.5248,-0.4065,2.0903,-16.9817,-5.0000,6.8902,,,,SGN
166965073737,0.4519,-0.4297,2.0115,-18.6585,-10.9146,4.5732,,,,SGN
166965073739,0.4296,-0.4256,2.0114,-20.9756,-13.7195,0.3659,,,,SGN
166965073740,0.4724,-0.4463,2.0312,-23.3537,-10.0000,-3.1707,,,,SGN
166965073742,0.5180,-0.4693,2.0579,-24.2073,-1.2195,-7.2561,,,,SGN
166965073743,0.5132,-0.5039,1.9985,-23.5366,5.7317,-9.6951,,,,SGN
166965073745,0.4871,-0.5181,1.9382,-21.4024,5.8537,-12.0732,,,,SGN
166965073746,,,,,,,-14.6250,-65.6250,-5.0625,SGN
166965073747,0.4736,-0.5466,1.8796,-18.5366,3.7805,-14.5732,,,,SGN
166965073748,0.4912,-0.5598,1.8083,-15.4268,2.2561,-15.4878,,,,SGN
166965073749,0.6157,-0.5552,1.7822,-12.8963,2.8659,-16.0975,,,,SGN
166965073750,0.7026,-0.5603,1.8149,-10.1220,12.8659,-17.0122,,,,SGN
166965073751,0.7230,-0.5512,1.8653,-7.7134,32.0427,-19.8781,,,,SGN
166965073752,0.6692,-0.5750,1.8628,-3.0488,44.6341,-21.4634,,,,SGN
166965073754,0.5220,-0.5920,1.8088,-1.2195,44.8171,-22.4390,,,,SGN
166965073755,0.4187,-0.5713,1.8025,0.6707,40.2439,-23.4146,,,,SGN
166965073756,,,,,,,-15.0000,-64.5000,-4.3125,SGN
166965073757,0.5045,-0.5288,1.8028,3.4451,33.4147,-23.5975,,,,SGN
166965073758,0.5754,-0.5454,1.7976,9.3902,33.5366,-23.2927,,,,SGN
166965073759,0.5503,-0.5610,1.6990,15.1829,32.8659,-23.3537,,,,SGN
166965073760,0.6048,-0.5265,1.5628,18.8415,29.3902,-24.3902,,,,SGN
166965073761,0.7095,-0.4871,1.5767,25.9451,29.6037,-23.2317,,,,SGN
166965073763,0.7556,-0.3500,1.6232,32.2256,39.6037,-22.7439,,,,SGN
166965073764,0.7542,-0.2004,1.6953,34.6951,42.8049,-20.6098,,,,SGN
166965073765,,,,,,,-16.0625,-63.8125,-4.3125,SGN
166965073766,0.6843,-0.1582,1.7275,36.4024,42.1341,-18.1098,,,,SGN
166965073767,0.6472,-0.1443,1.7390,38.1707,38.7195,-15.6707,,,,SGN
166965073768,0.6409,-0.1504,1.7253,39.3902,34.7561,-12.3171,,,,SGN
166965073769,0.6435,-0.1578,1.7437,40.7317,30.7013,-7.8659,,,,SGN
166965073770,0.6174,-0.1460,1.7402,41.7683,28.9634,-5.0000,,,,SGN
166965073771,0.5903,-0.0901,1.7368,39.3293,30.6707,-5.5488,,,,SGN
166965073772,0.5784,-0.0442,1.8008,36.9512,33.8415,-5.3049,,,,SGN
166965073773,0.5435,-0.0493,1.8721,35.0610,36.7073,-5.4878,,,,SGN
166965073774,0.4863,-0.0415,1.9250,32.6220,36.8293,-6.1585,,,,SGN
166965073775,0.4375,-0.0295,1.9602,30.7927,34.7561,-6.0976,,,,SGN
166965073776,,,,,,,-11.0000,-65.6250,-6.2500,SGN
166965073777,0.4055,-0.0381,1.9282,29.3293,29.3293,-6.0366,,,,SGN
166965073778,0.3866,-0.0179,1.9041,27.0122,21.4025,-5.7927,,,,SGN
166965073779,0.3845,0.0027,1.8706,24.5122,15.8537,-5.6098,,,,SGN
166965073780,0.3875,0.0234,1.8660,22.9878,14.3293,-6.2805,,,,SGN
166965073781,0.3633,0.0386,1.9009,20.7317,14.0244,-6.4634,,,,SGN
166965073782,0.3459,0.0415,1.9377,19.6951,13.1098,-6.9512,,,,SGN
166965073783,0.3501,0.0588,1.9658,17.9878,11.9512,-7.5000,,,,SGN
166965073784,0.3540,0.0830,1.9685,16.3415,10.5488,-7.2561,,,,SGN
166965073785,0.3604,0.1113,1.9849,14.4512,8.4756,-5.8537,,,,SGN
166965073786,,,,,,,-8.4375,-66.0000,-6.6875,SGN
166965073787,0.3616,0.1416,2.0636,10.7622,2.4695,-4.6341,,,,SGN
166965073788,0.3469,0.1621,2.0789,6.8902,-2.7439,-3.9024,,,,SGN
166965073789,0.3533,0.1379,2.0789,4.7561,-6.6463,-3.4146,,,,SGN
166965073790,0.3457,0.0591,2.0520,5.0610,-10.6098,-3.5976,,,,SGN
166965073791,0.3057,0.0120,1.9934,3.0488,-13.1098,-4.0854,,,,SGN
166965073792,0.3479,0.0149,1.9600,1.8293,-15.1220,-4.3293,,,,SGN
166965073793,0.4453,-0.0195,1.9341,1.5854,-11.8293,-3.3537,,,,SGN
166965073794,0.5298,-0.0500,1.9290,3.5976,-6.0366,-2.0732,,,,SGN
166965073795,0.5537,-0.0708,1.9121,6.2195,-1.8293,-2.3171,,,,SGN
166965073796,0.4478,-0.0906,1.8787,8.3537,2.3780,-2.3171,-8.8125,-66.0000,-5.8750,SGN
166965073797,0.3708,-0.0803,1.8784,8.8415,3.6585,-1.4634,,,,SGN
166965073798,0.3618,-0.0732,1.9280,8.9024,2.5610,-0.2439,,,,SGN
166965073799,0.3706,-0.0813,1.9788,9.5122,1.2805,-0.4268,,,,SGN
166965073800,0.4019,-0.0928,2.0081,9.5122,0.3049,0.1829,,,,SGN
166965073801,0.4343,-0.0835,2.0601,8.0488,1.8293,0.9756,,,,SGN
166965073802,0.4500,-0.0764,2.0964,7.9878,1.2195,1.4024,,,,SGN
166965073803,0.4346,-0.0867,2.1101,6.5244,1.3415,2.5000,,,,SGN
166965073804,0.4192,-0.0940,2.1321,5.1829,1.7073,2.9878,,,,SGN
166965073805,0.4106,-0.1121,2.1497,3.9024,2.7439,3.7805,,,,SGN
166965073806,,,,,,,-10.6250,-65.2500,-6.2500,SGN
166965073808,0.4017,-0.0991,2.1614,2.0427,2.3476,4.7866,,,,SGN
166965073809,0.3413,-0.0833,2.1636,0.3049,2.6829,5.9756,,,,SGN
166965073810,0.2849,-0.1038,2.0916,-1.0976,2.1951,5.1220,,,,SGN
166965073811,0.2773,-0.0980,1.9931,-2.3476,-2.5610,4.6341,,,,SGN
166965073812,0.3926,-0.1033,1.9736,-1.7683,-2.6829,6.0976,,,,SGN
166965073813,0.5046,-0.0876,1.9871,0.3049,1.5854,6.2805,,,,SGN
166965073814,0.5317,-0.0886,1.9553,1.4024,5.2439,7.0122,,,,SGN
166965073815,0.4595,-0.0708,1.9463,2.5610,6.9512,8.7805,,,,SGN
166965073817,0.4001,-0.0703,1.9509,2.6829,6.5244,11.0366,-9.5000,-66.0000,-7.4375,SGN
166965073818,0.4116,-0.0884,1.9902,2.7439,5.2439,12.0732,,,,SGN
166965073819,0.4265,-0.0791,2.0300,1.5244,8.1707,11.6463,,,,SGN
166965073820,0.4195,-0.0461,2.0606,-0.2135,14.0244,10.6098,,,,SGN
166965073821,0.3022,-0.0298,2.0581,-2.0122,11.4024,9.5122,,,,SGN
166965073822,0.2112,-0.0422,2.0352,-3.1707,2.9878,9.3293,,,,SGN
166965073823,0.1528,-0.0513,2.0063,-4.6341,-5.0610,8.3537,,,,SGN
166965073824,0.1548,-0.0527,1.9680,-3.9634,-11.5244,7.5610,,,,SGN
166965073825,0.1499,-0.0657,1.8936,-3.1707,-14.7561,6.7073,,,,SGN
166965073826,0.1716,-0.0652,1.8381,-1.2805,-16.2195,6.0976,-9.1250,-65.2500,-6.2500,SGN
166965073827,0.3042,-0.0737,1.8025,-0.9146,-21.1585,9.0244,,,,SGN
166965073828,0.4146,-0.0361,1.8811,-0.9756,-25.6707,10.7927,,,,SGN
166965073829,0.5488,0.0068,1.9478,-0.4878,-14.2683,10.0000,,,,SGN
166965073830,0.6653,0.0220,1.9734,0.3049,1.4634,7.9268,,,,SGN
166965073831,0.6096,0.0051,1.9817,0.3049,14.0244,8.6585,,,,SGN
166965073832,0.4856,-0.0164,1.9661,0.6707,16.6463,9.8171,,,,SGN
166965073833,0.4448,-0.0186,1.9619,0.9146,11.6463,9.8171,,,,SGN
166965073834,0.3811,-0.0444,1.9299,2.0732,5.1220,10.9756,,,,SGN
166965073835,0.2588,-0.0669,1.9211,2.1341,-1.2195,10.9146,,,,SGN
166965073837,0.2144,-0.0947,1.9570,2.5000,-5.4268,9.6341,,,,SGN
166965073838,,,,,,,-8.8125,-66.6875,-7.8750,SGN
166965073839,0.2385,-0.1208,1.9653,2.8049,-3.7195,8.5366,,,,SGN
166965073840,0.2798,-0.1025,2.0103,3.7195,-0.2439,7.8049,,,,SGN
166965073841,0.3730,-0.0623,2.0484,3.3537,7.4085,7.7744,,,,SGN
166965073842,0.4253,-0.0503,2.0684,2.8659,16.4024,5.7927,,,,SGN
166965073843,0.3267,-0.0425,2.0867,1.0976,16.4024,4.6951,,,,SGN
166965073844,0.1978,-0.0051,2.1319,-1.4329,7.5305,4.4512,,,,SGN
166965073845,0.2151,-0.0513,2.0901,-4.0854,2.5000,1.5854,,,,SGN
166965073846,0.2073,-0.0815,2.0864,-5.4878,4.6951,-1.0366,,,,SGN
166965073847,,,,,,,-8.0625,-67.4375,-6.6875,SGN
166965073848,0.1836,-0.0789,2.1365,-5.2439,1.0976,-0.9146,,,,SGN
166965073849,0.2007,-0.0933,2.1355,-6.5854,-0.1829,0.3049,,,,SGN
166965073850,0.2747,-0.0631,2.1089,-7.5000,3.9634,-2.8354,,,,SGN
166965073851,0.2595,-0.0610,2.0896,-7.8659,8.5366,-4.6341,,,,SGN
166965073852,0.2065,-0.0718,2.0513,-7.0732,9.8780,-5.4268,,,,SGN
166965073853,0.2602,-0.0682,1.9489,-7.2561,7.8049,-5.4268,,,,SGN
166965073854,,,,-6.5244,8.6585,-5.7317,,,,SGN
166965073855,0.3560,-0.0669,1.9783,-5.4268,10.5488,-4.2683,,,,SGN
166965073856,0.3503,-0.0547,2.0107,-4.9390,12.5000,-3.4146,,,,SGN
166965073857,,,,,,,-6.9375,-66.3125,-5.0625,SGN
166965073858,0.3481,-0.0249,2.0571,-4.8171,14.3293,-2.7439,,,,SGN
166965073859,0.3599,-0.0166,2.0874,-4.3902,15.4878,-1.2805,,,,SGN
166965073860,0.3315,-0.0326,1.9844,-4.1463,16.8293,-0.4268,,,,SGN
166965073861,0.3813,-0.0784,1.7993,-2.7439,15.1220,-0.2439,,,,SGN
166965073862,0.3699,-0.0303,1.8945,-1.1585,8.2012,2.5000,,,,SGN
166965073863,0.3821,0.0134,2.0090,-1.0366,0.1220,3.1707,,,,SGN
166965073864,0.3740,-0.0027,1.9419,-2.1951,7.0122,4.7561,,,,SGN
166965073865,0.2812,0.0596,1.9762,-3.4451,5.4878,3.9024,,,,SGN
166965073868,0.3088,-0.0154,2.0474,-4.5122,4.8171,5.8537,-5.5000,-66.3750,-5.0625,SGN
166965073869,0.3965,-0.1138,2.0491,,,,,,,SGN
166965073870,0.3762,-0.1445,2.0264,-5.4878,10.0000,5.3659,,,,SGN
166965073871,0.2808,-0.2048,1.9159,-3.5061,12.0122,4.1463,,,,SGN
166965073872,0.2449,-0.2666,1.7795,-0.1829,8.7195,4.6951,,,,SGN
166965073873,0.2947,-0.2859,1.7412,2.9878,10.6707,5.3659,,,,SGN
166965073874,0.2269,-0.2537,1.7595,7.2866,16.0061,4.4512,,,,SGN
166965073875,,,,12.4390,19.3293,1.8902,,,,SGN
166965073877,0.0635,-0.1733,1.7805,15.1829,11.4634,0.3659,,,,SGN
166965073880,-0.0166,-0.0696,2.0422,14.6951,3.8415,0.7927,-5.1250,-66.3125,-5.5000,SGN
166965073881,0.0701,0.0598,2.3110,10.6098,-4.9390,1.8293,,,,SGN
166965073882,0.2246,0.1145,2.4231,7.3171,-11.5854,0.9756,,,,SGN
166965073883,0.2364,0.0512,2.3120,-0.1524,-0.2744,-3.3841,,,,SGN
166965073884,0.0935,-0.0569,2.2537,-5.9756,5.9756,-6.4634,,,,SGN
166965073885,0.0867,-0.0798,2.1550,-7.9878,1.5854,-7.9878,,,,SGN
166965073886,0.1979,-0.1284,2.0385,-8.0793,2.8049,-8.2622,,,,SGN
166965073887,0.2441,-0.2136,2.0166,-6.5854,5.1829,-8.1098,,,,SGN
166965073888,0.2290,-0.2195,1.9912,-6.5854,6.0976,-8.7195,,,,SGN
166965073889,0.2251,-0.2078,1.9480,-5.4878,5.5488,-9.4512,-4.4375,-67.0625,-4.3125,SGN
166965073890,0.2205,-0.1926,1.9062,-4.3293,1.8293,-8.1098,,,,SGN
166965073891,0.2456,-0.1636,1.8726,-2.7439,-2.5610,-7.7439,,,,SGN
166965073892,0.3327,-0.1066,1.8807,-0.5183,-5.3659,-4.9085,,,,SGN
166965073893,0.3250,-0.0330,1.9895,0.2439,-4.2073,-2.0732,,,,SGN
166965073894,0.2739,0.0090,2.0486,-0.2439,-1.6463,-1.1585,,,,SGN
166965073895,0.2301,-0.0039,2.0141,-0.1830,-1.1890,-0.4574,,,,SGN
166965073897,0.2354,-0.0144,1.9363,-0.3049,1.0976,-0.3659,,,,SGN
166965073898,,,,,,,-6.6250,-66.0000,-5.0625,SGN
166965073900,0.2812,0.0117,1.9797,-0.1829,4.9390,0.3049,,,,SGN
166965073901,0.2753,-0.0138,1.9806,0.7622,7.6829,0.2439,,,,SGN
166965073902,0.1846,-0.0303,1.9546,2.0122,3.8415,0.0610,,,,SGN
166965073903,0.1682,-0.0212,2.0029,3.2317,-1.5244,0.8537,,,,SGN
166965073904,0.1575,-0.0199,1.9982,3.9024,-5.4268,1.0671,,,,SGN
166965073905,0.1968,0.0273,2.0938,2.3780,-7.6220,0.9146,,,,SGN
166965073906,0.2090,0.0347,2.1318,0.2439,-2.9878,-0.3659,,,,SGN
166965073907,0.2947,-0.0163,2.0430,-0.0305,4.2073,-1.4329,,,,SGN
166965073908,,,,,,,-4.0625,-66.0000,-5.5000,SGN
166965073909,0.3347,-0.0330,2.0347,-0.0610,8.2927,-0.6098,,,,SGN
166965073910,0.3484,-0.0663,2.0378,-1.1890,11.2500,0.3353,,,,SGN
166965073911,0.3169,-0.0430,2.0747,-2.9268,13.2927,0.9146,,,,SGN
166965073913,0.3601,-0.1229,2.1822,-7.2256,17.5305,1.3110,,,,SGN
166965073914,0.3274,-0.0935,2.1128,-8.8415,19.5732,-1.1585,,,,SGN
166965073916,0.1585,-0.1081,1.7900,-5.6707,9.5427,1.2195,,,,SGN
166965073917,-0.0020,-0.0532,1.5532,-0.4268,-6.4634,3.6585,,,,SGN
166965073918,,,,,,,-4.0625,-66.0000,-4.6875,SGN
166965073919,0.2174,-0.0485,1.4964,10.5793,-4.8171,8.0793,,,,SGN
166965073920,0.3479,-0.0234,1.5503,20.6707,11.4024,6.9512,,,,SGN
166965073922,0.1575,0.0784,1.7168,25.2743,25.5793,4.6646,,,,SGN
166965073923,0.1616,0.2620,1.9675,23.1707,15.5488,4.4512,,,,SGN
166965073925,0.0007,0.2895,2.2977,13.2012,0.0305,5.1829,,,,SGN
166965073926,0.3350,0.1794,2.4717,3.4146,7.1341,1.0366,,,,SGN
166965073928,0.3530,0.0674,2.4460,-2.6829,22.5000,-3.2927,-4.7500,-67.8125,-4.3125,SGN
166965073929,0.2102,-0.0396,2.3096,-6.4634,29.6951,-5.4268,,,,SGN
166965073931,0.1331,-0.1831,2.0903,-7.6220,21.4025,-4.2683,,,,SGN
166965073932,0.0378,-0.2537,1.9524,-4.7561,13.3537,-5.1220,,,,SGN
166965073933,-0.0713,-0.2524,1.9011,-1.9512,4.6951,-3.9634,,,,SGN
166965073934,-0.1091,-0.2494,1.8761,3.4451,-16.5853,-3.0793,,,,SGN
166965073935,-0.1216,-0.2495,1.8977,8.3537,-38.9634,-4.1463,,,,SGN
166965073937,-0.0747,-0.2190,1.9990,8.0183,-49.2683,-8.3537,,,,SGN
166965073939,,,,,,,-4.0625,-67.0625,-5.0625,SGN
166965073940,0.0583,-0.1972,2.2056,3.6585,-50.0914,-11.6159,,,,SGN
166965073941,0.0847,-0.2134,2.1963,0.3659,-56.7073,-12.7439,,,,SGN
166965073942,0.1357,-0.1880,2.1726,-3.9024,-61.9512,-12.7439,,,,SGN
166965073943,0.4226,-0.1166,2.2027,-9.3293,-44.6646,-12.4390,,,,SGN
166965073944,0.8618,-0.1030,2.1812,-11.4634,3.0488,-9.2073,,,,SGN
166965073945,0.7937,-0.0864,2.0088,-13.5366,24.3902,-6.9512,,,,SGN
166965073946,0.6013,-0.0713,1.9939,-10.8537,34.3902,-3.9634,,,,SGN
166965073947,0.5408,-0.0298,1.8506,-8.5976,32.7439,-0.1220,,,,SGN
166965073948,,,,,,,-6.6250,-66.6875,-5.5000,SGN
166965073949,0.3804,0.0081,1.7500,-7.9268,28.0488,0.8537,,,,SGN
166965073950,0.3928,0.0068,1.8003,-5.1220,23.3537,3.1707,,,,SGN
166965073951,0.3777,0.0322,1.9138,-3.3537,31.2805,4.9390,,,,SGN
166965073952,0.1580,0.0595,2.0158,-2.1951,37.4390,4.5122,,,,SGN
166965073953,-0.0830,0.0007,2.0105,-0.0610,26.9512,4.0854,,,,SGN
166965073954,-0.0964,-0.0325,1.9570,0.8537,15.3659,3.0488,,,,SGN
166965073955,-0.0327,-0.0481,1.9819,1.2195,10.9146,1.8902,,,,SGN
166965073956,0.0498,-0.0527,2.0281,3.0488,15.1829,0.1829,,,,SGN
166965073957,0.0444,-0.0828,1.9199,3.4756,11.5244,-0.0610,,,,SGN
166965073960,-0.0305,-0.1072,1.9065,4.0244,6.5854,-1.5244,,,,SGN
166965073961,0.0264,-0.0842,1.9646,4.5732,5.3049,-3.2317,-4.4375,-67.0625,-3.9375,SGN
166965073962,0.1055,-0.0647,2.0181,4.3293,4.1463,-3.4146,,,,SGN
166965073963,0.1064,-0.0664,2.0425,4.0244,0.8537,-2.9878,,,,SGN
166965073964,0.0896,-0.0731,2.0339,3.0793,-8.4146,-3.1707,,,,SGN
166965073965,0.1018,-0.0818,2.0232,2.6829,-17.0732,-2.6829,,,,SGN
166965073966,0.1140,-0.0991,1.9897,2.9878,-24.1463,-1.9512,,,,SGN
166965073967,0.1351,-0.0914,2.0156,2.0427,-33.9939,-2.0122,,,,SGN
166965073968,0.2239,-0.1199,2.0181,2.9878,-33.4146,-2.6220,,,,SGN
166965073969,,,,,,,-6.6250,-67.8125,-5.0625,SGN
166965073970,0.2790,-0.1197,2.0415,3.8415,-29.0244,-1.3720,,,,SGN
166965073971,0.3579,-0.1130,2.0513,4.4512,-24.8171,-0.8537,,,,SGN
166965073972,0.3904,-0.0820,2.0901,3.7195,-20.0610,-1.0366,,,,SGN
166965073973,0.3784,-0.0698,2.1138,2.8659,-15.3659,-1.2195,,,,SGN
166965073974,0.3582,-0.0715,2.1091,3.2927,-13.7195,0.3659,,,,SGN
166965073975,0.2461,-0.0737,2.0715,2.5610,-14.7561,1.4024,,,,SGN
166965073976,0.0903,-0.0801,2.0483,1.9512,-23.9634,3.1098,,,,SGN
166965073977,0.0894,-0.1084,2.0259,2.1341,-34.4512,4.9390,,,,SGN
166965073978,0.2161,-0.1167,1.9475,,,,,,,SGN
166965073979,0.4268,-0.0796,1.9241,3.2317,-37.9878,5.9146,-6.6250,-67.4375,-7.0625,SGN
166965073980,0.5510,-0.0200,2.0200,2.5610,-32.3171,7.1951,,,,SGN
166965073981,0.5464,-0.0098,2.0828,1.4634,-21.2195,7.9878,,,,SGN
166965073982,0.5212,-0.0247,2.0420,0.2743,-5.7012,8.1707,,,,SGN
166965073983,0.4861,-0.0271,1.9988,-1.5244,7.0732,6.0976,,,,SGN
166965073984,0.3777,-0.0320,2.0056,-2.3171,9.6951,5.3049,,,,SGN
166965073985,0.2529,-0.0552,1.9929,-2.8049,6.5854,4.4512,,,,SGN
166965073986,0.1968,-0.0637,1.9624,-1.8902,0.1829,2.9878,,,,SGN
166965073987,0.1975,-0.0701,1.9246,-1.4634,-6.4634,1.5244,,,,SGN
166965073988,0.2053,-0.0405,1.9358,-1.7683,-10.9146,1.7683,,,,SGN
166965073990,,,,,,,-7.6875,-66.0000,-6.6875,SGN
166965073991,0.2677,-0.0209,2.0031,-1.3110,-12.5305,2.2256,,,,SGN
166965073992,0.3191,-0.0164,2.0303,-1.3415,-13.5366,1.8902,,,,SGN
166965073993,0.3669,-0.0186,1.9966,-1.8902,-11.1585,1.4024,,,,SGN
166965073994,0.4028,-0.0284,1.9619,-1.6159,-5.6098,0.0305,,,,SGN
166965073995,0.4177,-0.0247,1.9597,-0.1829,-0.9146,-1.8293,,,,SGN
166965073996,0.3953,-0.0208,1.9260,-1.4634,2.0122,-3.2927,,,,SGN
166965073997,0.3423,-0.0022,1.9692,-2.3780,2.9268,-3.1098,,,,SGN
166965073998,0.3066,-0.0220,2.0044,-3.1707,2.2561,-3.2927,,,,SGN
166965074000,0.3420,-0.0295,2.0198,-3.7805,0.9756,-3.2317,-7.3125,-67.0625,-7.4375,SGN
166965074001,0.4136,-0.0337,2.0144,-4.5122,6.9512,-3.2317,,,,SGN
166965074002,0.4468,-0.0586,1.9910,-3.9634,10.1829,-3.6585,,,,SGN
166965074003,0.3600,-0.0846,1.9821,-3.7805,12.8963,-3.0488,,,,SGN
166965074004,0.2937,-0.0696,1.9985,-4.9390,11.6463,-3.2927,,,,SGN
166965074005,0.3079,-0.0569,2.0283,-5.5488,10.0610,-3.5976,,,,SGN
166965074006,0.3389,-0.0735,2.0103,-5.4878,9.7561,-3.7195,,,,SGN
166965074007,0.3411,-0.0828,1.9858,-5.0000,10.2439,-4.1463,,,,SGN
166965074008,0.2905,-0.0791,1.9739,-5.4268,10.6098,-4.5732,,,,SGN
166965074009,0.2495,-0.0764,1.9897,-5.6707,8.5366,-4.8780,-7.6875,-66.0000,-5.0625,SGN
166965074010,0.2703,-0.0796,2.0073,-5.1220,7.0122,-5.0610,,,,SGN
166965074011,0.3069,-0.0913,2.0332,-4.5122,6.8293,-5.1220,,,,SGN
166965074012,0.3235,-0.0986,2.0325,-4.0854,8.9634,-5.3049,,,,SGN
166965074013,0.3403,-0.0889,2.0327,-3.5976,9.0854,-5.1220,,,,SGN
166965074014,0.3135,-0.0796,2.0142,-3.5976,9.0854,-5.4878,,,,SGN
166965074015,0.2793,-0.0786,2.0288,-3.4756,5.3659,-3.9634,,,,SGN
166965074016,0.2566,-0.0977,2.0168,-3.2927,1.7073,-2.8049,,,,SGN
166965074018,0.2691,-0.1027,2.0281,-1.8293,0.3049,-1.6463,,,,SGN
166965074021,0.2747,-0.0881,2.0112,-0.9146,-0.5488,-0.2439,,,,SGN
166965074022,,,,,,,-6.9375,-65.6250,-5.8750,SGN
166965074023,0.2622,-0.0913,2.0000,-0.4878,-1.5244,0.1829,,,,SGN
166965074024,0.2683,-0.0858,2.0044,0.3354,-0.9756,0.2744,,,,SGN
166965074025,0.2869,-0.0681,2.0005,0.4268,0.3049,0.1220,,,,SGN
166965074026,0.2952,-0.0657,1.9951,-0.3659,0.9756,0.0610,,,,SGN
166965074027,0.2769,-0.0771,2.0042,-0.4269,1.0061,0.7927,,,,SGN
166965074028,0.2715,-0.0925,1.9941,-0.6098,0.1829,1.0366,,,,SGN
166965074029,0.2925,-0.0947,2.0027,-0.4268,0.3049,1.0366,,,,SGN
166965074030,0.3008,-0.0947,2.0129,-0.1220,0.1829,1.0366,-8.0625,-65.2500,-5.8750,SGN
166965074032,0.2878,-0.0955,2.0098,0.0000,0.3659,0.8537,,,,SGN
166965074033,0.2762,-0.0928,2.0084,-0.0915,0.0305,0.5487,,,,SGN
166965074034,0.2698,-0.0884,1.9963,0.0610,-1.0976,0.4878,,,,SGN
166965074035,0.2700,-0.0881,1.9924,-0.2439,-1.7073,0.1220,,,,SGN
166965074036,0.2953,-0.0872,2.0030,0.0610,-1.4024,0.0915,,,,SGN
166965074037,0.3164,-0.0764,2.0154,-0.0610,-0.1220,-0.1220,,,,SGN
166965074038,0.2971,-0.0745,2.0164,-0.3049,0.0000,0.1829,,,,SGN
166965074039,0.2815,-0.0823,2.0159,0.0610,-0.4268,0.4878,-7.3125,-66.3125,-5.5000,SGN
166965074040,0.2874,-0.0906,1.9888,-0.3049,-0.6707,0.6707,,,,SGN
166965074042,0.2935,-0.0864,1.9854,-0.6098,-0.6098,1.2805,,,,SGN
166965074043,0.2903,-0.0818,1.9895,-0.6707,-0.4878,1.6463,,,,SGN
166965074044,0.2839,-0.0869,1.9998,-0.9756,-0.8537,1.5244,,,,SGN
166965074045,0.2791,-0.0902,1.9987,-0.6402,-1.2195,1.4939,,,,SGN
166965074046,0.2871,-0.0811,2.0085,-1.3415,-1.4024,1.7683,,,,SGN
166965074047,0.2888,-0.0869,2.0171,-1.0976,-1.9512,2.3171,,,,SGN
166965074048,0.2606,-0.1106,2.0118,-0.8232,-4.5427,2.2256,,,,SGN
166965074050,0.2686,-0.1165,2.0000,0.2439,-7.3780,1.8902,,,,SGN
166965074051,0.3064,-0.1001,2.0022,0.1829,-7.5610,1.7073,-7.6875,-66.3125,-5.0625,SGN
166965074052,0.3213,-0.0933,2.0083,0.1220,-6.5854,1.5244,,,,SGN
166965074053,0.3071,-0.0911,2.0115,0.5488,-7.0122,1.7073,,,,SGN
166965074054,0.3159,-0.0858,1.9814,0.9451,-4.9390,1.1890,,,,SGN
166965074056,0.3733,-0.0752,1.9907,0.8537,-1.1585,1.1585,,,,SGN
166965074057,0.3332,-0.0815,2.0022,-0.0915,0.9756,1.8598,,,,SGN
166965074059,0.2749,-0.0859,2.0010,-0.6098,-0.6707,1.8293,,,,SGN
166965074060,0.2957,-0.0879,1.9998,-1.0976,-1.0976,1.9512,,,,SGN
166965074061,,,,,,,-6.2500,-66.3125,-5.0625,SGN
166965074062,0.3237,-0.0867,2.0034,-0.8537,-0.3659,1.9512,,,,SGN
166965074063,0.3144,-0.1029,1.9827,-0.2744,1.6768,1.1585,,,,SGN
166965074064,0.3418,-0.0964,2.0027,-0.0610,2.9878,0.8537,,,,SGN
166965074065,0.3271,-0.0923,2.0305,-0.0610,2.5610,1.8902,,,,SGN
166965074066,0.2931,-0.1118,2.0012,0.9146,0.5183,1.8293,,,,SGN
166965074068,0.2764,-0.1067,2.0015,1.2195,-1.4024,1.5244,,,,SGN
166965074069,0.3001,-0.0804,2.0206,0.8232,-2.2866,1.7988,,,,SGN
166965074070,,,,,,,-6.2500,-66.6875,-6.2500,SGN
166965074071,0.3088,-0.0942,2.0183,0.9146,-2.8659,1.4634,,,,SGN
166965074072,0.3013,-0.1069,2.0010,1.2195,-3.7195,1.7683,,,,SGN
166965074074,0.3018,-0.1160,2.0076,2.2561,-4.3902,2.0122,,,,SGN
166965074075,0.3206,-0.1178,1.9939,4.1768,-4.1159,1.2500,,,,SGN
166965074076,0.3691,-0.0869,1.9849,4.5122,-1.2195,1.1585,,,,SGN
166965074077,0.3362,-0.0623,1.9976,4.0854,0.1220,1.6463,,,,SGN
166965074078,0.2965,-0.0645,2.0042,3.0793,-0.4573,1.7683,,,,SGN
166965074079,0.3157,-0.0696,2.0134,2.2561,-1.0366,2.0122,,,,SGN
166965074080,,,,,,,-6.9375,-66.0000,-5.0625,SGN
166965074081,0.3191,-0.0730,2.0005,1.5244,-1.2805,2.1951,,,,SGN
166965074083,0.3066,-0.0823,1.9937,1.0976,-1.4024,2.0122,,,,SGN
166965074084,0.3063,-0.0905,1.9895,1.2805,-1.3720,1.4939,,,,SGN
166965074085,0.3320,-0.0759,2.0105,1.1585,-0.8537,0.9146,,,,SGN
166965074086,0.3354,-0.0764,2.0105,1.5854,-0.3659,0.4268,,,,SGN
166965074087,0.3137,-0.0850,1.9939,1.6463,-0.6098,0.4878,,,,SGN
166965074088,0.3035,-0.0835,1.9832,1.3415,-0.8537,0.9146,,,,SGN
166965074089,0.3096,-0.0825,1.9871,1.4634,-0.6707,0.6707,,,,SGN
166965074090,0.3224,-0.0809,1.9873,1.4634,-0.0610,0.6707,,,,SGN
166965074091,,,,1.5854,0.7927,1.2805,-8.0625,-66.0000,-6.6875,SGN
166965074092,0.3291,-0.0862,2.0129,,,,,,,SGN
166965074093,0.3474,-0.0830,2.0264,2.9573,1.7378,0.9451,,,,SGN
166965074094,0.3271,-0.0786,2.0164,3.2927,2.9268,1.7073,,,,SGN
166965074095,0.2900,-0.0688,2.0071,2.9878,2.5610,2.9268,,,,SGN
166965074096,0.2938,-0.0674,2.0122,2.7439,-0.2744,4.5122,,,,SGN
166965074097,0.3147,-0.0889,1.9905,3.3537,-1.4634,5.6707,,,,SGN
166965074099,0.3002,-0.0797,1.9907,3.4756,-1.6463,4.5732,,,,SGN
166965074100,0.2754,-0.0886,2.0659,3.2927,-3.7805,3.6585,,,,SGN
166965074101,,,,,,,-7.3125,-66.6875,-5.8750,SGN
166965074102,0.2485,-0.0916,2.1023,4.2683,-11.0366,3.1707,,,,SGN
166965074103,0.2808,-0.1033,2.0623,5.4268,-21.5244,5.6098,,,,SGN
166965074104,0.2798,-0.1221,1.9902,3.5976,-18.1098,3.7195,,,,SGN
166965074105,0.3173,-0.1080,1.9510,6.2805,-22.1341,4.1463,,,,SGN
166965074106,0.4646,-0.0171,2.0215,-0.2439,-1.6463,10.6707,,,,SGN
166965074108,0.4169,0.0621,1.9777,-1.1890,2.5610,7.4085,,,,SGN
166965074109,0.3833,0.0127,1.9614,-3.4146,8.9634,4.0244,,,,SGN
166965074111,0.4177,-0.0698,1.9116,-2.1341,12.4390,4.2073,-7.3125,-66.3125,-7.4375,SGN
166965074114,0.3535,-0.0901,1.9095,-1.0061,12.4085,2.9573,,,,SGN
166965074115,0.3027,-0.1128,1.9822,-0.2439,14.8780,1.0366,,,,SGN
166965074116,0.3745,-0.1013,2.0078,0.4878,11.7683,0.6098,,,,SGN
166965074117,0.3504,-0.0763,2.0532,-1.4634,11.6768,0.3963,,,,SGN
166965074118,0.2944,-0.1001,2.0181,0.2439,7.8659,0.4878,,,,SGN
166965074119,0.2415,-0.0962,1.9485,1.7683,2.8659,-0.0610,,,,SGN
166965074120,0.2122,-0.0765,2.0996,2.2256,-5.3049,-1.0671,,,,SGN
166965074121,,,,,,,-9.1250,-66.3125,-5.8750,SGN
166965074122,0.2622,-0.0718,1.9219,1.0366,-8.7805,-0.3049,,,,SGN
166965074123,0.3095,-0.0779,2.0162,4.7561,-12.2561,-0.1830,,,,SGN
166965074124,0.3352,-0.0752,1.9587,5.5488,-12.7439,-0.4878,,,,SGN
166965074125,0.2656,-0.0664,2.0173,6.4024,-15.5488,0.4878,,,,SGN
166965074126,0.2502,-0.0557,2.0408,6.7683,-22.7439,0.6707,,,,SGN
166965074127,0.2837,-0.0813,2.0288,7.9878,-27.4390,0.9146,,,,SGN
166965074128,0.3647,-0.0889,1.9714,9.2683,-25.6098,0.5488,,,,SGN
166965074129,0.4883,-0.0432,1.9700,10.1220,-19.4512,0.5488,,,,SGN
166965074130,0.5259,-0.0129,1.9622,5.3049,-9.2683,0.3049,,,,SGN
166965074131,,,,,,,-8.0625,-67.8125,-4.6875,SGN
166965074132,0.3105,0.0119,2.1380,2.2256,-10.2439,0.1220,,,,SGN
166965074133,0.4995,-0.0161,1.9631,0.7927,-10.3049,-1.4634,,,,SGN
166965074134,0.3782,-0.1094,1.8992,1.5854,-5.5488,-3.3537,,,,SGN
166965074135,0.2373,-0.1152,1.9351,2.4390,-16.3415,-4.5732,,,,SGN
166965074136,0.3530,-0.0488,1.9248,2.8659,-16.5244,-6.0976,,,,SGN
166965074137,0.4399,-0.0410,1.8972,4.4512,-17.2561,-4.5732,,,,SGN
166965074138,0.3420,-0.0439,1.8684,3.4756,-17.3171,-3.0488,,,,SGN
166965074139,0.2993,-0.0090,1.9116,3.3537,-16.9512,-1.8293,,,,SGN
166965074140,0.4897,0.0347,1.9407,2.6220,-10.4878,0.5488,,,,SGN
166965074141,0.6497,0.0535,2.0054,2.6829,0.3049,3.2317,,,,SGN
166965074144,,,,,,,-9.5000,-67.0625,-7.8750,SGN
166965074145,0.6414,0.0513,2.0271,1.7683,10.9756,5.0610,,,,SGN
166965074146,0.6292,0.0479,2.0220,3.2317,36.8293,2.4390,,,,SGN
166965074147,0.5455,0.0391,1.9800,2.1951,44.2073,2.5000,,,,SGN
166965074148,0.3064,-0.0979,2.0024,3.6585,43.2317,0.7317,,,,SGN
166965074149,0.2363,-0.1042,2.0369,4.5732,32.9878,-1.8902,,,,SGN
166965074150,0.2514,-0.1012,2.0248,2.6220,18.4451,0.2744,,,,SGN
166965074151,0.2419,-0.1116,2.0496,-1.8902,12.3171,-1.9512,,,,SGN
166965074152,0.2112,-0.0923,2.1753,2.5610,-0.0610,-1.9512,,,,SGN
166965074153,0.1440,-0.0828,1.9834,0.4268,-3.6585,-3.6585,-6.9375,-68.8750,-6.2500,SGN
166965074154,0.1819,-0.1282,1.9229,4.0244,-9.1463,2.8659,,,,SGN
166965074156,0.4053,-0.0117,1.9209,2.1037,-5.6402,0.1220,,,,SGN
166965074157,0.4460,-0.0171,1.9438,3.9634,-0.1829,-0.4878,,,,SGN
166965074158,0.3169,-0.0063,1.9087,4.7561,1.1585,-1.2805,,,,SGN
166965074159,0.3543,0.0713,1.9782,2.6220,3.6585,-0.7317,,,,SGN
166965074160,0.3960,0.0496,2.0139,1.1890,8.0183,1.6159,,,,SGN
166965074161,0.3479,0.0200,2.1077,0.1220,10.0610,1.8293,,,,SGN
166965074162,,,,,,,-6.6250,-68.1875,-7.0625,SGN
166965074163,0.3091,-0.0139,2.0173,-0.6098,8.0488,1.7683,,,,SGN
166965074165,0.2561,-0.0671,2.0398,-1.5854,5.2439,0.4878,,,,SGN
166965074166,0.3201,-0.0911,2.0898,-0.6707,4.4512,0.9756,,,,SGN
166965074167,0.2915,-0.0920,2.0396,1.5854,-1.6463,0.0000,,,,SGN
166965074168,0.3029,-0.1081,2.0166,1.5549,-0.9451,-1.6768,,,,SGN
166965074169,0.5237,-0.0356,2.1230,1.8293,9.8171,3.5976,,,,SGN
166965074170,0.3804,-0.0320,2.0032,1.7073,12.0122,3.3537,,,,SGN
166965074171,0.2563,-0.0833,2.0551,1.1585,11.7683,1.5244,,,,SGN
166965074172,,,,0.1220,17.4390,2.8049,-8.4375,-66.6875,-7.8750,SGN
166965074173,0.2781,-0.0508,1.9844,,,,,,,SGN
166965074174,0.1958,-0.0830,1.9746,0.6098,17.9878,1.5244,,,,SGN
166965074175,0.1907,-0.1018,1.9563,2.5000,14.8780,2.3171,,,,SGN
166965074176,0.2405,-0.0498,1.9746,3.9024,11.0976,2.6829,,,,SGN
166965074177,0.3448,0.0217,2.1062,3.4146,8.3537,4.4207,,,,SGN
166965074178,0.3499,-0.0029,2.0735,2.1951,14.1463,5.0000,,,,SGN
166965074179,0.2400,-0.0312,2.1265,3.2927,23.1707,2.3780,,,,SGN
166965074180,0.1218,-0.1416,2.1123,-0.1220,34.8171,-1.6463,,,,SGN
166965074181,0.0613,-0.1509,2.1614,-2.2561,29.6341,-6.7073,,,,SGN
166965074182,0.0884,-0.0886,2.2988,-7.4390,27.3171,-4.9390,,,,SGN
166965074183,0.2727,-0.0581,2.3225,-10.2439,30.1220,-8.1098,-5.1250,-68.1875,-5.5000,SGN
166965074184,0.4348,-0.1257,2.2590,,,,,,,SGN
166965074185,0.3784,-0.1953,2.1165,-10.9146,34.8780,-7.8659,,,,SGN
166965074186,0.1704,-0.2231,1.9727,-9.6341,37.5915,-8.4756,,,,SGN
